Time(ms),Temp(C),Pressure(hPa),Alt(m),FiltAlt(m),AccX(g),AccY(g),AccZ(g),GyroX(deg/s),GyroY(deg/s),GyroZ(deg/s),AngleX(deg),AngleY(deg),AngleZ(deg),LM35Temp(C)
1,19.62,1040.11,668.96,133.79,-0.02,0.00,0.96,3.66,-1.02,-1.39,5.69,-3.24,-2.18,21.00
33,19.62,1040.11,668.96,240.82,-0.02,0.00,0.96,3.54,-0.83,-1.57,5.74,-4.87,-2.23,21.00
64,19.62,1040.11,668.96,326.45,-0.01,0.00,0.97,3.60,-1.05,-1.48,5.79,-6.49,-2.28,21.00
96,19.64,1040.02,669.62,395.09,-0.01,-0.00,0.96,3.45,-0.74,-1.65,5.82,-8.06,-2.33,21.00
130,19.64,1040.02,669.62,449.99,-0.02,-0.00,0.96,3.65,-0.51,-1.65,5.88,-9.59,-2.38,20.02
162,19.64,1040.02,669.62,493.92,-0.01,0.00,0.96,3.78,-0.73,-1.43,5.93,-11.10,-2.43,20.02
194,19.63,1040.04,669.51,529.04,-0.01,0.01,0.96,3.65,-0.94,-1.48,5.98,-12.59,-2.48,20.02
225,19.63,1040.04,669.51,557.13,-0.01,-0.00,0.96,3.65,-0.99,-1.29,6.01,-14.05,-2.52,20.02
257,19.63,1040.04,669.51,579.61,-0.02,0.00,0.95,3.65,-0.87,-1.49,6.05,-15.47,-2.56,21.00
289,19.63,1040.08,669.20,597.52,-0.02,0.00,0.96,3.42,-0.85,-1.37,6.09,-16.86,-2.61,21.00
322,19.63,1040.08,669.20,611.86,-0.01,-0.00,0.96,3.68,-0.90,-1.49,6.13,-18.23,-2.66,20.51
353,19.63,1040.08,669.20,623.33,-0.01,-0.00,0.95,3.60,-0.99,-1.48,6.16,-19.58,-2.70,20.02
385,19.62,1040.08,669.17,632.50,-0.02,-0.00,0.97,3.60,-0.90,-1.48,6.20,-20.89,-2.75,21.00
417,19.62,1040.08,669.17,639.83,-0.01,-0.00,0.96,3.62,-0.62,-1.54,6.23,-22.17,-2.80,20.02
448,19.62,1040.08,669.17,645.70,-0.01,-0.00,0.96,3.49,-0.71,-1.42,6.26,-23.43,-2.84,19.53
480,19.62,1040.12,668.85,650.33,-0.02,0.00,0.96,3.52,-0.24,-1.78,6.29,-24.65,-2.90,21.00
514,19.62,1040.12,668.85,654.03,-0.01,-0.00,0.96,3.74,-1.08,-1.45,6.33,-25.88,-2.95,21.00
546,19.62,1040.12,668.85,657.00,-0.02,-0.00,0.96,3.31,-0.50,-2.06,6.36,-27.04,-3.02,21.00
578,19.62,1040.13,668.75,659.35,-0.01,-0.00,0.96,3.77,-0.61,-1.23,6.39,-28.21,-3.05,20.02
609,19.62,1040.13,668.75,661.23,0.01,0.08,0.99,2.62,-2.97,2.08,6.48,-29.44,-2.99,21.00
641,19.62,1040.13,668.75,662.73,0.03,0.08,1.08,-34.11,3.73,17.99,5.42,-30.47,-2.41,20.02
675,19.62,1040.11,668.93,663.97,-0.10,-0.01,0.87,-19.47,12.04,12.46,4.69,-31.02,-1.99,21.00
706,19.62,1040.11,668.93,664.96,0.03,0.06,1.19,-23.97,-23.41,-9.87,3.98,-32.83,-2.30,21.00
737,19.62,1040.11,668.93,665.76,-0.15,-0.02,1.12,-19.21,1.81,1.03,3.34,-33.66,-2.27,19.53
769,19.62,1040.16,668.53,666.31,0.06,-0.04,0.99,15.31,6.45,14.97,3.76,-34.55,-1.79,20.02
801,19.62,1040.16,668.53,666.76,0.03,0.10,0.82,14.79,-8.65,-2.07,4.34,-35.87,-1.85,21.00
832,19.62,1040.16,668.53,667.11,0.05,0.07,0.89,-0.48,-11.17,-20.88,4.37,-37.26,-2.52,20.51
866,19.62,1040.16,668.55,667.40,0.02,-0.09,0.86,-7.22,23.65,-1.95,3.98,-37.47,-2.59,21.00
898,19.62,1040.16,668.55,667.63,0.16,-0.21,0.93,-6.19,-6.13,-5.34,3.51,-38.80,-2.76,21.00
930,19.62,1040.16,668.55,667.81,0.10,-0.03,0.92,-7.87,-0.54,-5.07,3.20,-39.86,-2.92,20.02
962,19.62,1040.15,668.62,667.98,0.05,0.01,0.99,-17.10,7.06,-10.52,2.66,-40.60,-3.25,20.51
993,19.62,1040.15,668.62,668.11,-0.16,-0.01,1.05,-9.18,20.78,-29.26,2.36,-40.68,-4.16,20.51
1025,19.62,1040.15,668.62,668.21,0.10,-0.03,0.99,-2.45,6.98,-35.40,2.25,-41.45,-5.29,21.00
1059,19.61,1040.18,668.38,668.24,0.26,-0.03,0.92,12.70,-13.14,-11.14,2.64,-43.07,-5.67,20.51
1090,19.61,1040.18,668.38,668.27,0.03,-0.06,0.90,19.91,0.88,7.51,3.16,-43.92,-5.44,19.53
1121,19.61,1040.18,668.38,668.29,0.07,-0.10,0.83,16.65,31.88,-6.94,3.52,-43.86,-5.66,21.00
1153,19.61,1040.16,668.54,668.34,0.07,-0.11,0.88,32.96,47.09,35.80,4.39,-43.30,-4.51,20.02
1185,19.62,1040.16,668.54,668.38,-0.48,-0.39,1.30,16.62,34.11,15.68,4.55,-42.67,-4.01,20.51
1218,19.62,1040.16,668.54,668.41,0.08,-0.15,0.78,-1.18,17.52,0.58,4.25,-43.05,-3.99,19.53
1249,19.62,1040.16,668.49,668.43,0.00,-0.00,0.83,0.59,20.34,0.89,4.23,-43.27,-3.96,21.00
1281,19.62,1040.16,668.49,668.44,-0.07,0.01,0.84,2.96,18.88,9.36,4.30,-43.41,-3.66,20.02
1313,19.62,1040.16,668.49,668.45,-0.08,-0.07,0.87,8.21,14.62,22.66,4.43,-43.68,-2.94,21.00
1344,19.62,1040.16,668.49,668.46,0.58,0.08,0.28,-9.12,26.59,63.65,4.24,-41.33,-0.90,20.02
1376,19.62,1040.17,668.43,668.45,0.12,0.02,1.02,8.62,-7.99,27.65,4.49,-42.57,-0.04,20.51
1410,19.62,1040.17,668.43,668.45,0.02,0.05,0.83,9.74,-12.58,23.35,4.84,-43.86,0.75,19.53
1442,19.62,1040.17,668.43,668.44,-0.02,0.08,0.74,16.12,-12.12,49.50,5.42,-45.03,2.34,20.02
1474,19.62,1040.16,668.52,668.46,0.02,0.09,0.85,15.69,-17.74,1.65,5.97,-46.41,2.39,20.51
1505,19.62,1040.16,668.52,668.47,0.02,0.02,0.86,6.45,-24.06,-32.41,6.13,-47.94,1.38,20.02
1537,19.62,1040.16,668.52,668.48,0.01,0.11,0.77,16.81,-10.15,-16.65,6.74,-49.01,0.85,21.00
1569,19.62,1040.14,668.69,668.52,0.11,0.15,0.61,-1.32,13.68,22.37,6.88,-49.50,1.57,20.51
1602,19.62,1040.14,668.69,668.55,-0.05,0.06,0.85,4.99,14.62,17.62,7.03,-49.66,2.15,20.02
1633,19.62,1040.14,668.69,668.58,-0.08,0.26,0.84,-15.56,14.65,-15.84,6.80,-49.82,1.66,19.53
1665,19.62,1040.15,668.57,668.58,-0.20,0.01,0.91,-27.62,-42.58,-54.58,5.87,-51.60,-0.09,21.00
1697,19.62,1040.15,668.57,668.58,-0.00,0.12,0.72,-15.84,-48.53,-47.94,5.49,-53.78,-1.62,21.00
1728,19.62,1040.15,668.57,668.57,-0.09,-0.06,0.88,-11.41,-28.70,-35.72,4.99,-55.18,-2.77,21.00
1762,19.62,1040.16,668.47,668.55,-0.06,0.05,0.86,8.74,-17.12,4.55,5.29,-56.24,-2.62,20.51
1794,19.62,1040.16,668.47,668.54,-0.01,0.01,0.92,13.31,-16.38,9.91,5.66,-57.32,-2.30,21.00
1929,19.61,1040.16,668.54,668.54,-0.04,0.04,0.89,9.77,-5.58,-3.87,6.94,-58.56,-2.82,19.53
1961,19.61,1040.16,668.54,668.54,-0.03,0.02,0.89,1.00,-5.58,-5.60,6.90,-59.21,-3.00,21.00
1992,19.61,1040.16,668.54,668.54,-0.04,0.05,0.91,-7.87,0.42,-8.33,6.63,-59.66,-3.26,21.00
2023,19.61,1040.16,668.71,668.57,-0.11,0.09,0.98,3.26,-36.44,5.56,6.74,-61.14,-3.09,21.00
2057,19.62,1040.14,668.71,668.60,0.05,0.03,1.00,0.24,7.35,-14.44,6.69,-61.42,-3.58,21.48
2089,19.62,1040.14,668.71,668.62,-0.01,-0.01,0.94,1.42,4.19,-10.49,6.65,-61.75,-3.91,20.51
2120,19.62,1040.14,668.71,668.64,-0.01,0.01,0.97,3.72,-16.73,0.86,6.69,-62.70,-3.89,20.51
2151,19.62,1040.15,668.63,668.64,0.02,0.01,0.97,3.13,7.36,-4.96,6.71,-62.95,-4.04,20.51
2183,19.62,1040.15,668.63,668.64,-0.04,0.01,0.97,4.55,-0.33,1.26,6.78,-63.35,-4.00,21.00
2217,19.62,1040.15,668.53,668.62,0.02,0.02,0.98,3.97,-3.03,-0.04,6.84,-63.90,-4.00,21.00
2248,19.62,1040.16,668.53,668.60,-0.02,0.01,0.97,3.13,2.52,-4.23,6.86,-64.22,-4.13,21.00
2279,19.62,1040.16,668.53,668.59,-0.01,0.01,0.97,3.71,-4.73,-0.79,6.90,-64.76,-4.16,20.51
2311,19.62,1040.16,668.53,668.58,-0.01,0.01,0.97,3.72,1.17,-1.92,6.94,-65.11,-4.22,21.00
2343,19.62,1040.13,668.77,668.61,-0.01,0.01,0.97,3.87,-2.07,-0.24,6.98,-65.55,-4.23,20.51
2374,19.62,1040.13,668.77,668.64,-0.01,0.01,0.97,3.40,-0.04,-1.95,7.00,-65.92,-4.29,21.00
2407,19.62,1040.13,668.77,668.67,-0.01,0.01,0.98,3.58,-1.22,-1.84,7.03,-66.33,-4.35,20.02
2439,19.62,1040.14,668.67,668.67,-0.00,0.01,0.98,3.87,-0.87,-1.43,7.07,-66.72,-4.39,20.51
2471,19.62,1040.14,668.67,668.67,-0.02,0.01,0.97,3.87,-0.80,-1.10,7.11,-67.09,-4.43,20.51
2502,19.62,1040.14,668.67,668.67,-0.00,0.01,0.98,3.40,-0.93,-1.60,7.13,-67.46,-4.48,21.00
2533,19.62,1040.15,668.58,668.65,-0.02,0.00,0.97,3.58,-0.74,-1.84,7.15,-67.81,-4.54,20.51
2565,19.62,1040.15,668.58,668.64,-0.00,0.00,0.97,3.46,-0.41,-1.54,7.17,-68.16,-4.58,20.51
2599,19.62,1040.15,668.58,668.62,-0.01,0.01,0.98,3.91,-0.93,-1.29,7.22,-68.51,-4.63,21.00
2630,19.62,1040.13,668.77,668.65,-0.01,0.01,0.97,3.75,-0.79,-1.31,7.25,-68.84,-4.67,20.51
2661,19.62,1040.13,668.77,668.68,-0.00,0.00,0.97,3.45,-0.79,-1.49,7.26,-69.18,-4.72,21.00
2693,19.62,1040.13,668.77,668.69,-0.01,0.01,0.97,3.51,-0.61,-1.43,7.29,-69.50,-4.76,21.00
2725,19.62,1040.16,668.52,668.66,-0.01,0.01,0.97,3.52,-0.65,-1.42,7.32,-69.81,-4.81,20.02
2758,19.62,1040.16,668.52,668.63,-0.01,0.01,0.97,3.60,-1.03,-1.31,7.35,-70.13,-4.85,21.00
2789,19.62,1040.16,668.52,668.61,-0.01,0.01,0.97,3.48,-0.67,-1.68,7.37,-70.43,-4.90,21.00
2821,19.62,1040.13,668.71,668.63,-0.01,0.01,0.96,3.65,-0.79,-1.28,7.40,-70.73,-4.94,20.51
2853,19.62,1040.13,668.71,668.65,-0.01,0.01,0.98,3.55,-0.65,-1.57,7.42,-71.02,-4.99,21.00
2884,19.62,1040.13,668.71,668.66,-0.00,0.02,0.98,3.58,-0.67,-1.52,7.45,-71.31,-5.04,20.51
2915,19.62,1040.15,668.61,668.65,-0.02,0.01,0.97,3.54,-0.61,-1.45,7.47,-71.58,-5.09,20.02
2949,19.62,1040.15,668.61,668.64,-0.01,0.01,0.97,3.83,-1.00,-1.46,7.50,-71.87,-5.14,20.02
2981,19.62,1040.15,668.61,668.64,-0.01,0.00,0.97,3.68,-1.14,-1.29,7.52,-72.15,-5.18,20.02
3012,19.62,1040.17,668.44,668.60,-0.01,0.01,0.97,3.45,-0.54,-1.58,7.53,-72.40,-5.23,21.00
3043,19.62,1040.17,668.44,668.56,-0.00,0.01,0.97,3.43,-0.50,-1.66,7.55,-72.66,-5.28,19.53
3075,19.62,1040.17,668.44,668.54,-0.01,0.01,0.96,3.54,-0.39,-1.45,7.57,-72.90,-5.32,21.00
3109,19.62,1040.17,668.44,668.52,-0.01,0.01,0.97,3.68,-0.93,-1.29,7.60,-73.15,-5.37,20.02
3140,19.62,1040.17,668.44,668.50,-0.01,0.01,0.97,3.57,-0.65,-1.54,7.61,-73.40,-5.42,20.51
3171,19.62,1040.17,668.44,668.49,-0.01,0.01,0.97,3.49,-0.47,-1.51,7.62,-73.62,-5.46,20.02
3203,19.62,1040.16,668.48,668.49,-0.00,0.01,0.97,3.58,-0.33,-1.52,7.64,-73.85,-5.51,20.02
3235,19.62,1040.16,668.48,668.48,-0.01,0.01,0.97,3.60,-0.21,-1.45,7.66,-74.06,-5.56,20.51
3266,19.62,1040.16,668.48,668.48,-0.01,0.01,0.97,3.72,-0.35,-1.54,7.68,-74.27,-5.60,21.00
3299,19.62,1040.13,668.77,668.54,-0.01,0.01,0.96,3.48,-0.64,-1.43,7.70,-74.49,-5.65,21.00
3331,19.62,1040.13,668.77,668.59,-0.01,0.01,0.97,3.58,-0.58,-1.61,7.72,-74.70,-5.70,20.02
3363,19.62,1040.13,668.77,668.62,-0.01,0.01,0.98,3.45,-0.67,-1.72,7.73,-74.91,-5.76,20.51
3394,19.62,1040.15,668.62,668.62,-0.01,0.01,0.97,3.46,0.02,-1.75,7.74,-75.09,-5.81,20.02
3425,19.62,1040.15,668.62,668.62,-0.00,0.01,0.96,3.57,-0.35,-1.58,7.75,-75.29,-5.86,20.02
3457,19.62,1040.15,668.62,668.62,-0.01,0.01,0.97,3.54,-0.35,-1.49,7.76,-75.48,-5.91,20.51
3491,19.62,1040.16,668.47,668.59,-0.01,0.01,0.97,3.40,-0.33,-1.60,7.78,-75.66,-5.96,21.00
3522,19.62,1040.16,668.47,668.57,-0.01,0.01,0.97,3.62,-0.29,-1.48,7.79,-75.84,-6.01,19.53
3553,19.62,1040.16,668.47,668.55,-0.01,0.01,0.97,3.63,-0.07,-1.40,7.81,-76.00,-6.05,21.00
3585,19.62,1040.15,668.57,668.55,-0.01,0.02,0.96,3.57,-0.29,-1.52,7.83,-76.17,-6.10,21.00
3617,19.62,1040.15,668.57,668.56,-0.02,0.01,0.98,3.55,-0.56,-1.58,7.85,-76.35,-6.15,21.00
3650,19.62,1040.15,668.57,668.56,-0.01,0.01,0.97,3.58,-0.15,-1.65,7.87,-76.51,-6.21,20.51
3681,19.62,1040.15,668.57,668.56,-0.01,0.01,0.97,3.71,-0.35,-1.34,7.88,-76.67,-6.25,21.00
3713,19.62,1040.15,668.57,668.56,-0.01,0.01,0.97,3.54,-0.58,-1.63,7.89,-76.84,-6.30,21.00
3745,19.62,1040.15,668.57,668.56,-0.01,0.01,0.97,3.65,-0.74,-1.58,7.91,-77.01,-6.35,21.00
3776,19.62,1040.13,668.72,668.59,-0.01,0.01,0.97,3.80,-0.64,-1.36,7.93,-77.17,-6.39,20.02
3808,19.62,1040.13,668.72,668.62,-0.02,0.01,0.97,3.78,-0.71,-1.43,7.95,-77.32,-6.44,21.00
3842,19.62,1040.13,668.72,668.64,-0.00,0.01,0.97,3.45,-0.27,-1.92,7.96,-77.48,-6.50,20.02
3874,19.62,1040.16,668.55,668.62,-0.01,0.01,0.97,3.51,0.14,-1.81,7.96,-77.62,-6.56,21.00
3906,19.62,1040.16,668.55,668.61,-0.01,0.01,0.97,3.55,-0.19,-1.54,7.97,-77.76,-6.61,20.02
3937,19.62,1040.16,668.55,668.60,-0.01,0.01,0.96,3.71,-0.24,-1.66,7.98,-77.89,-6.66,20.51
3969,19.62,1040.17,668.40,668.56,-0.01,0.01,0.97,3.45,-0.61,-1.74,7.99,-78.03,-6.72,20.02
4001,19.62,1040.17,668.40,668.53,-0.01,0.01,0.97,3.74,-0.79,-1.40,8.01,-78.18,-6.76,20.51
4034,19.62,1040.17,668.40,668.50,-0.00,0.00,0.97,3.66,0.11,-1.65,8.01,-78.31,-6.82,19.53
4065,19.62,1040.15,668.59,668.52,-0.02,0.01,0.97,3.71,-0.70,-1.28,8.03,-78.44,-6.86,20.51
4097,19.62,1040.15,668.59,668.53,-0.01,0.00,0.97,3.68,-0.04,-1.63,8.03,-78.56,-6.91,20.02
4129,19.62,1040.15,668.59,668.54,-0.00,0.00,0.97,3.95,-0.25,-0.90,8.04,-78.68,-6.94,21.00
4160,19.62,1040.15,668.57,668.55,-0.01,0.01,0.97,3.87,-0.36,-1.14,8.06,-78.81,-6.98,21.00
4194,19.62,1040.15,668.57,668.55,-0.01,0.01,0.97,3.58,-0.12,-1.65,8.07,-78.92,-7.03,21.00
4226,19.62,1040.15,668.57,668.55,-0.01,0.00,0.97,3.49,-0.61,-1.49,8.07,-79.05,-7.08,20.51
4258,19.62,1040.15,668.60,668.56,-0.02,0.01,0.97,3.62,-0.03,-1.43,8.08,-79.14,-7.12,21.00
4290,19.62,1040.15,668.60,668.57,-0.00,0.01,0.97,3.63,-0.21,-1.39,8.09,-79.26,-7.17,21.00
4321,19.62,1040.15,668.60,668.58,-0.01,0.01,0.97,3.62,-0.50,-1.28,8.10,-79.37,-7.21,19.53
4353,19.62,1040.16,668.52,668.57,-0.01,0.01,0.97,3.74,-0.61,-1.46,8.11,-79.49,-7.25,20.51
4387,19.62,1040.16,668.52,668.56,-0.00,0.01,0.97,3.51,-0.47,-1.66,8.13,-79.60,-7.31,21.48
4418,19.62,1040.16,668.52,668.55,-0.01,0.01,0.97,3.83,-0.27,-1.42,8.15,-79.70,-7.35,21.00
4449,19.61,1040.19,668.28,668.50,-0.01,0.01,0.97,3.68,-0.53,-1.61,8.16,-79.81,-7.40,20.51
4481,19.61,1040.19,668.28,668.45,-0.02,0.01,0.97,3.25,-0.27,-1.60,8.16,-79.89,-7.46,21.00
4513,19.61,1040.19,668.28,668.42,-0.01,0.02,0.98,3.62,-0.01,-1.69,8.18,-79.99,-7.51,20.51
4546,19.62,1040.15,668.56,668.45,-0.02,0.01,0.98,3.54,-0.47,-1.57,8.19,-80.08,-7.56,21.00
4577,19.62,1040.15,668.56,668.47,-0.00,0.01,0.97,3.43,0.20,-1.84,8.19,-80.16,-7.62,21.00
4609,19.62,1040.15,668.56,668.49,-0.02,0.01,0.97,3.49,-0.45,-1.48,8.19,-80.25,-7.67,21.00
4641,19.62,1040.15,668.55,668.50,-0.01,0.01,0.97,3.57,-0.06,-1.52,8.19,-80.32,-7.71,21.00
4672,19.62,1040.15,668.55,668.51,0.00,0.01,0.96,3.71,-0.25,-1.58,8.21,-80.42,-7.77,21.00
4704,19.62,1040.15,668.55,668.52,-0.01,0.01,0.96,3.46,-0.61,-1.48,8.21,-80.52,-7.81,21.00
4738,19.62,1040.15,668.63,668.54,-0.01,0.01,0.96,3.57,-0.30,-1.49,8.22,-80.60,-7.86,21.00
4770,19.62,1040.15,668.63,668.56,-0.01,0.01,0.97,3.39,-0.61,-1.71,8.23,-80.68,-7.92,20.51
4802,19.62,1040.15,668.63,668.58,-0.01,0.01,0.97,3.52,-0.38,-1.60,8.23,-80.76,-7.97,20.51
4833,19.62,1040.15,668.61,668.58,-0.01,0.01,0.97,3.51,-0.22,-1.72,8.23,-80.83,-8.02,19.53
4865,19.62,1040.15,668.61,668.59,-0.00,0.00,0.97,3.46,-0.54,-1.51,8.23,-80.92,-8.07,20.51
4897,19.62,1040.15,668.61,668.59,-0.01,0.01,0.97,3.43,-0.07,-1.72,8.23,-80.99,-8.12,21.00
4930,19.62,1040.15,668.62,668.60,-0.01,0.01,0.97,3.58,-0.79,-1.51,8.24,-81.07,-8.17,21.00
4961,19.62,1040.15,668.62,668.60,-0.02,0.01,0.97,3.51,-0.39,-1.81,8.24,-81.14,-8.23,20.02
4993,19.62,1040.15,668.62,668.60,-0.01,0.01,0.98,3.51,-0.45,-1.55,8.24,-81.22,-8.28,21.00
5025,19.62,1040.15,668.42,668.57,-0.01,0.01,0.97,3.46,-0.39,-1.45,8.25,-81.29,-8.33,21.00
5056,19.62,1040.16,668.47,668.55,-0.01,0.01,0.96,3.42,0.08,-1.75,8.25,-81.34,-8.38,20.51
5090,19.62,1040.16,668.47,668.53,-0.00,0.01,0.97,3.63,-1.19,-1.65,8.26,-81.45,-8.44,21.00
5122,19.62,1040.16,668.59,668.54,-0.02,0.01,0.97,3.52,-0.76,-1.49,8.26,-81.52,-8.48,20.02
5154,19.62,1040.15,668.59,668.55,0.00,0.01,0.97,3.69,-0.68,-1.40,8.27,-81.61,-8.53,20.51
5186,19.62,1040.15,668.59,668.56,-0.01,0.01,0.98,3.55,-0.65,-1.45,8.27,-81.68,-8.58,20.51
5217,19.62,1040.15,668.59,668.56,-0.00,0.00,0.98,3.36,-0.62,-1.52,8.26,-81.75,-8.62,20.51
5249,19.62,1040.16,668.53,668.56,-0.01,0.01,0.96,3.51,-0.74,-1.42,8.27,-81.83,-8.67,21.00
5283,19.62,1040.16,668.53,668.55,-0.02,0.01,0.97,3.66,-0.85,-1.37,8.29,-81.89,-8.71,20.02
5314,19.62,1040.16,668.53,668.55,-0.01,0.00,0.97,3.51,-0.83,-1.54,8.28,-81.97,-8.76,21.00
5345,19.62,1040.15,668.61,668.56,-0.01,0.00,0.97,3.42,-1.02,-1.54,8.27,-82.04,-8.81,20.51
5377,19.62,1040.15,668.61,668.57,-0.01,0.01,0.97,3.57,-0.48,-1.45,8.28,-82.10,-8.86,20.51
5409,19.62,1040.15,668.61,668.58,-0.01,0.01,0.96,3.52,-0.82,-1.36,8.28,-82.16,-8.90,20.02
5440,19.62,1040.15,668.61,668.58,-0.01,0.01,0.97,3.48,-0.32,-1.48,8.28,-82.21,-8.95,21.00
5474,19.62,1040.15,668.61,668.59,-0.01,0.01,0.97,3.68,-1.00,-1.36,8.29,-82.28,-8.99,21.00
5506,19.62,1040.15,668.61,668.59,-0.01,0.01,0.97,3.63,-1.05,-1.31,8.30,-82.35,-9.03,20.51
5538,19.62,1040.15,668.59,668.59,-0.01,0.01,0.97,3.83,-0.97,-1.52,8.32,-82.41,-9.08,20.02
5570,19.62,1040.15,668.59,668.59,-0.01,0.01,0.97,3.60,-1.11,-1.37,8.32,-82.49,-9.13,21.00
5601,19.62,1040.15,668.59,668.59,-0.01,0.01,0.97,3.58,-1.02,-1.42,8.33,-82.55,-9.17,20.02
5635,19.62,1040.15,668.60,668.59,-0.00,0.01,0.99,3.78,-0.18,-1.51,8.35,-82.59,-9.22,20.51
5667,19.62,1040.15,668.60,668.59,-0.02,0.01,0.97,3.60,-0.70,-1.45,8.35,-82.63,-9.27,21.00
5698,19.62,1040.15,668.60,668.59,-0.00,0.01,0.97,3.78,-0.73,-1.43,8.36,-82.69,-9.31,19.53
5729,19.62,1040.17,668.41,668.56,-0.00,0.00,0.97,3.83,-1.17,-1.37,8.36,-82.77,-9.35,21.00
5761,19.62,1040.17,668.41,668.53,-0.02,0.01,0.97,3.60,-0.70,-1.39,8.36,-82.81,-9.40,20.51
5793,19.62,1040.17,668.41,668.51,-0.01,0.01,0.97,3.46,-0.83,-1.39,8.37,-82.86,-9.44,21.00
5826,19.62,1040.16,668.52,668.51,-0.01,0.01,0.97,3.62,-1.19,-1.37,8.37,-82.93,-9.49,20.02
5857,19.62,1040.16,668.52,668.51,-0.01,0.01,0.97,3.78,-0.58,-1.46,8.38,-82.96,-9.53,20.51
5889,19.62,1040.16,668.52,668.51,-0.01,0.01,0.97,3.60,-0.97,-1.43,8.39,-83.02,-9.58,20.51
5921,19.62,1040.15,668.63,668.54,-0.01,0.01,0.98,3.75,-0.71,-1.28,8.40,-83.06,-9.62,20.51
5952,19.62,1040.15,668.63,668.56,-0.00,0.01,0.97,3.57,-0.82,-1.54,8.41,-83.12,-9.67,20.51
5984,19.62,1040.15,668.63,668.57,-0.02,0.01,0.97,3.48,-0.71,-1.43,8.40,-83.15,-9.71,20.51
6018,19.62,1040.15,668.57,668.57,-0.01,0.01,0.96,3.66,-0.74,-1.45,8.41,-83.20,-9.76,20.02
6050,19.62,1040.15,668.57,668.57,-0.01,0.01,0.96,3.68,-1.17,-1.36,8.42,-83.25,-9.81,19.53
6082,19.62,1040.15,668.57,668.57,-0.02,0.01,0.97,3.62,-0.73,-1.29,8.43,-83.28,-9.85,21.00
6113,19.62,1040.14,668.66,668.59,-0.00,0.01,0.96,3.48,-1.08,-1.43,8.43,-83.34,-9.89,21.00
6145,19.62,1040.14,668.66,668.60,-0.01,0.01,0.96,3.58,-0.67,-1.31,8.43,-83.38,-9.93,20.51
6179,19.62,1040.14,668.66,668.61,-0.01,0.01,0.97,3.60,-0.27,-1.60,8.44,-83.40,-9.99,20.51
6210,19.62,1040.15,668.56,668.60,-0.01,0.01,0.98,3.58,-1.05,-1.23,8.44,-83.44,-10.03,21.00
6241,19.62,1040.15,668.56,668.59,-0.00,0.00,0.97,3.74,-0.88,-1.45,8.44,-83.50,-10.07,20.51
6273,19.62,1040.15,668.56,668.59,0.00,0.01,0.97,3.66,-0.83,-1.55,8.44,-83.55,-10.12,20.02
6305,19.62,1040.16,668.48,668.57,-0.01,0.01,0.97,3.58,-0.74,-1.54,8.45,-83.58,-10.17,21.00
6336,19.62,1040.16,668.48,668.55,-0.00,0.00,0.97,3.62,-0.53,-1.45,8.44,-83.61,-10.22,21.00
6370,19.62,1040.16,668.48,668.53,-0.00,0.01,0.97,3.71,-1.09,-1.43,8.46,-83.67,-10.26,21.00
6402,19.62,1040.15,668.59,668.54,-0.02,0.02,0.97,3.71,-0.79,-1.49,8.47,-83.69,-10.31,20.51
6434,19.62,1040.15,668.59,668.55,-0.00,0.01,0.96,3.75,-1.06,-1.39,8.48,-83.74,-10.36,20.51
6466,19.62,1040.15,668.59,668.56,-0.02,0.02,0.97,3.74,-0.88,-1.40,8.49,-83.77,-10.40,20.51
6497,19.62,1040.15,668.59,668.56,-0.00,0.01,0.97,3.49,-0.79,-1.54,8.49,-83.81,-10.45,19.53
6531,19.62,1040.15,668.59,668.57,-0.01,0.01,0.97,3.54,-0.42,-1.54,8.49,-83.83,-10.50,21.00
6563,19.62,1040.15,668.59,668.57,-0.02,0.01,0.96,3.66,0.01,-1.55,8.49,-83.83,-10.55,20.02
6594,19.62,1040.14,668.66,668.59,0.00,0.01,0.97,3.68,-1.17,-1.39,8.49,-83.88,-10.59,20.02
6625,19.62,1040.14,668.66,668.60,-0.02,0.01,0.98,3.77,-0.99,-1.51,8.50,-83.91,-10.64,21.00
6657,19.62,1040.14,668.66,668.61,-0.01,0.01,0.97,3.74,-1.12,-1.43,8.50,-83.95,-10.69,20.51
6689,19.62,1040.18,668.38,668.57,-0.01,0.01,0.97,3.63,-0.90,-1.32,8.51,-83.98,-10.73,20.51
6722,19.62,1040.18,668.38,668.53,-0.01,0.01,0.97,3.66,-0.80,-1.52,8.51,-84.01,-10.78,19.53
6753,19.62,1040.18,668.38,668.50,-0.01,0.01,0.98,3.81,-1.28,-1.31,8.52,-84.06,-10.82,20.02
6785,19.61,1040.17,668.39,668.48,-0.01,0.01,0.97,3.62,-0.85,-1.37,8.52,-84.09,-10.86,21.00
6817,19.61,1040.17,668.39,668.46,-0.01,0.01,0.97,3.52,-0.79,-1.74,8.52,-84.12,-10.92,20.02
6848,19.61,1040.17,668.39,668.45,-0.01,0.01,0.97,3.62,-0.53,-1.58,8.52,-84.14,-10.97,20.51
6882,19.61,1040.18,668.32,668.42,-0.01,0.01,0.96,3.71,-0.74,-1.45,8.53,-84.16,-11.02,20.51
6914,19.61,1040.18,668.32,668.40,-0.00,0.01,0.97,3.78,-1.05,-1.34,8.54,-84.20,-11.06,20.51
6946,19.61,1040.18,668.32,668.38,-0.02,0.01,0.97,3.62,-0.80,-1.45,8.55,-84.21,-11.11,21.00
6978,19.61,1040.17,668.40,668.39,-0.01,0.01,0.97,3.83,-1.11,-1.34,8.55,-84.25,-11.15,19.53
7009,19.61,1040.17,668.40,668.39,-0.02,0.02,0.97,3.62,-1.09,-1.29,8.56,-84.27,-11.19,21.00
7041,19.61,1040.17,668.40,668.39,-0.00,0.01,0.97,3.62,-0.50,-1.57,8.56,-84.29,-11.24,20.51
7075,19.62,1040.16,668.49,668.41,-0.01,0.01,0.98,3.68,-0.68,-1.68,8.57,-84.31,-11.30,21.00
7106,19.62,1040.16,668.49,668.42,-0.01,0.01,0.97,3.83,-0.67,-1.45,8.57,-84.32,-11.34,21.00
7137,19.62,1040.16,668.49,668.44,-0.01,0.01,0.97,3.54,-0.99,-1.29,8.56,-84.36,-11.38,21.00
7169,19.61,1040.19,668.30,668.41,-0.02,0.01,0.97,3.71,-1.19,-1.46,8.56,-84.37,-11.43,21.00
7201,19.61,1040.19,668.30,668.39,-0.00,0.01,0.98,3.80,-0.79,-1.49,8.57,-84.41,-11.48,20.02
7232,19.61,1040.19,668.30,668.37,-0.01,0.01,0.97,3.72,-1.26,-1.29,8.58,-84.44,-11.52,21.00
7266,19.61,1040.19,668.24,668.34,-0.01,0.01,0.97,3.63,-0.12,-1.65,8.58,-84.43,-11.57,21.00
7298,19.61,1040.19,668.24,668.32,0.00,0.01,0.98,3.58,-0.64,-1.63,8.58,-84.47,-11.62,19.53
7330,19.61,1040.19,668.24,668.30,-0.01,0.01,0.97,3.75,-0.59,-1.46,8.58,-84.47,-11.67,20.02
7362,19.61,1040.18,668.31,668.31,-0.01,0.01,0.97,3.77,-0.62,-1.34,8.59,-84.49,-11.71,20.02
7393,19.61,1040.18,668.31,668.31,-0.02,0.01,0.96,3.57,-0.94,-1.52,8.59,-84.50,-11.76,20.02
7427,19.61,1040.18,668.31,668.31,-0.02,0.01,0.97,3.72,-0.33,-1.60,8.59,-84.49,-11.82,20.51
7459,19.61,1040.17,668.39,668.32,-0.00,0.00,0.96,3.66,0.02,-1.48,8.59,-84.49,-11.86,21.00
7490,19.61,1040.17,668.39,668.34,-0.02,0.01,0.96,3.74,-0.54,-1.52,8.59,-84.49,-11.91,19.53
7521,19.61,1040.17,668.39,668.35,-0.01,0.01,0.97,3.75,-0.39,-1.65,8.58,-84.50,-11.96,20.51
7553,19.61,1040.19,668.26,668.33,-0.01,0.01,0.96,3.55,-1.35,-1.39,8.58,-84.53,-12.01,20.51
7585,19.61,1040.19,668.26,668.32,-0.01,0.01,0.97,3.94,-0.41,-1.48,8.59,-84.54,-12.05,21.00
7618,19.61,1040.19,668.26,668.31,0.01,0.01,0.98,3.58,-0.70,-1.52,8.59,-84.57,-12.10,21.00
7649,19.61,1040.18,668.35,668.32,-0.02,0.01,0.97,3.66,-0.07,-1.54,8.59,-84.55,-12.15,20.02
7681,19.61,1040.18,668.35,668.32,0.00,0.01,0.97,3.54,-0.12,-1.60,8.58,-84.56,-12.20,21.00
7713,19.61,1040.18,668.35,668.33,-0.02,0.01,0.97,3.42,-0.61,-1.65,8.58,-84.56,-12.25,19.53
7744,19.62,1040.18,668.32,668.33,-0.01,0.01,0.97,3.65,-0.42,-1.60,8.58,-84.56,-12.31,19.53
7778,19.62,1040.18,668.32,668.32,-0.00,0.01,0.97,3.55,-0.35,-1.61,8.58,-84.58,-12.36,21.00
7810,19.62,1040.18,668.32,668.32,-0.02,0.01,0.98,3.75,-0.18,-1.48,8.59,-84.57,-12.41,20.51
7842,19.62,1040.18,668.38,668.33,-0.00,0.01,0.97,3.42,-0.09,-1.68,8.59,-84.57,-12.46,21.00
7874,19.62,1040.18,668.38,668.34,-0.01,0.01,0.98,3.37,-0.47,-1.60,8.58,-84.58,-12.51,21.00
7905,19.62,1040.18,668.38,668.35,-0.01,0.01,0.96,3.57,-0.18,-1.66,8.58,-84.57,-12.56,21.00
7937,19.62,1040.19,668.30,668.34,-0.01,0.01,0.97,3.55,-0.62,-1.51,8.58,-84.59,-12.61,21.00
7971,19.62,1040.19,668.30,668.33,-0.01,0.01,0.97,3.58,-0.21,-1.55,8.59,-84.59,-12.66,21.00
8002,19.62,1040.19,668.30,668.33,0.00,0.01,0.97,3.62,-0.47,-1.61,8.58,-84.61,-12.71,21.00
8033,19.61,1040.20,668.17,668.30,-0.01,0.01,0.97,3.72,-0.50,-1.29,8.58,-84.61,-12.75,20.51
8065,19.61,1040.20,668.17,668.27,-0.00,0.01,0.97,3.69,-0.22,-1.58,8.58,-84.62,-12.80,20.51
8097,19.61,1040.20,668.17,668.25,-0.01,0.01,0.97,3.55,-0.77,-1.26,8.58,-84.63,-12.85,21.00
8130,19.61,1040.18,668.32,668.26,-0.01,0.01,0.97,3.62,-0.21,-1.57,8.59,-84.63,-12.90,20.51
8161,19.61,1040.18,668.32,668.28,-0.01,0.02,0.98,3.60,-0.18,-1.51,8.59,-84.63,-12.94,20.51
8193,19.61,1040.18,668.32,668.28,-0.02,0.00,0.98,3.43,-0.21,-1.61,8.58,-84.61,-13.00,20.51
8225,19.61,1040.17,668.42,668.31,-0.01,0.01,0.97,3.51,0.11,-1.77,8.57,-84.60,-13.05,20.51
8256,19.61,1040.17,668.42,668.33,-0.00,0.01,0.96,3.66,-0.45,-1.58,8.58,-84.62,-13.10,20.51
8288,19.61,1040.17,668.42,668.35,-0.02,0.01,0.97,3.52,-0.04,-1.63,8.57,-84.60,-13.15,21.00
8322,19.62,1040.17,668.41,668.36,-0.01,0.01,0.97,3.51,-0.54,-1.63,8.58,-84.61,-13.21,21.00
8354,19.62,1040.17,668.41,668.37,-0.00,0.01,0.96,3.58,-0.88,-1.36,8.58,-84.64,-13.25,21.00
8386,19.62,1040.17,668.41,668.38,-0.02,0.01,0.97,3.77,-0.53,-1.51,8.58,-84.64,-13.30,20.51
8417,19.62,1040.15,668.59,668.42,0.01,0.01,0.96,3.49,-0.74,-1.55,8.57,-84.67,-13.35,21.00
8449,19.62,1040.15,668.59,668.46,-0.02,0.02,0.98,3.40,-0.61,-1.32,8.57,-84.67,-13.39,20.51
8481,19.62,1040.15,668.59,668.48,-0.00,0.01,0.96,3.63,-0.54,-1.42,8.58,-84.68,-13.44,21.00
8514,19.62,1040.14,668.67,668.52,-0.02,0.01,0.98,3.36,-1.02,-1.49,8.57,-84.70,-13.49,20.51
8545,19.62,1040.14,668.67,668.55,-0.01,0.01,0.98,3.60,-0.33,-1.63,8.57,-84.69,-13.54,20.51
8577,19.62,1040.14,668.67,668.57,-0.01,0.02,0.97,3.40,-0.87,-1.40,8.57,-84.71,-13.58,20.51
8609,19.62,1040.16,668.50,668.56,-0.01,0.01,0.98,3.48,-0.13,-1.48,8.57,-84.70,-13.63,21.00
8640,19.62,1040.16,668.50,668.55,-0.00,0.01,0.96,3.40,-0.74,-1.61,8.56,-84.73,-13.68,21.48
8674,19.62,1040.16,668.50,668.54,-0.02,0.02,0.97,3.68,-1.06,-1.28,8.58,-84.74,-13.72,20.02
8706,19.62,1040.17,668.42,668.52,-0.01,0.01,0.97,3.68,-0.80,-1.43,8.59,-84.76,-13.77,20.51
8738,19.62,1040.17,668.42,668.50,-0.01,0.01,0.97,3.39,-1.14,-1.36,8.58,-84.78,-13.81,20.02
8770,19.62,1040.17,668.42,668.48,-0.02,0.01,0.97,3.57,-0.45,-1.51,8.58,-84.77,-13.86,21.00
8801,19.62,1040.16,668.41,668.47,-0.00,0.01,0.97,3.60,-0.91,-1.60,8.57,-84.80,-13.91,21.48
8833,19.61,1040.17,668.41,668.46,-0.01,0.01,0.97,3.39,-0.82,-1.49,8.56,-84.81,-13.96,19.53
8867,19.61,1040.17,668.41,668.45,-0.01,0.01,0.97,3.83,-0.88,-1.36,8.58,-84.82,-14.00,21.00
8898,19.61,1040.17,668.43,668.44,-0.01,0.01,0.97,3.42,-0.96,-1.46,8.57,-84.84,-14.05,21.00
8929,19.62,1040.17,668.43,668.44,-0.01,0.01,0.96,3.68,-0.73,-1.42,8.56,-84.85,-14.09,21.00
8961,19.62,1040.17,668.43,668.44,-0.00,0.01,0.96,3.55,-0.88,-1.55,8.57,-84.87,-14.14,20.51
8993,19.62,1040.17,668.43,668.44,-0.02,0.01,0.98,3.62,-0.51,-1.57,8.57,-84.86,-14.19,21.00
9026,19.62,1040.16,668.52,668.45,-0.01,0.01,0.96,3.48,-0.88,-1.55,8.57,-84.88,-14.24,21.00
9057,19.62,1040.16,668.52,668.47,-0.01,0.01,0.98,3.49,-0.68,-1.51,8.57,-84.89,-14.29,20.51
9089,19.62,1040.16,668.52,668.48,-0.01,0.01,0.97,3.49,-0.58,-1.39,8.57,-84.89,-14.33,20.02
9121,19.62,1040.18,668.38,668.46,-0.02,0.01,0.97,3.51,-0.85,-1.48,8.56,-84.90,-14.38,21.00
9152,19.62,1040.18,668.38,668.44,-0.01,0.01,0.97,3.55,-0.19,-1.55,8.56,-84.89,-14.43,21.00
9184,19.62,1040.18,668.38,668.43,0.00,0.01,0.97,3.58,-0.13,-1.58,8.56,-84.89,-14.48,21.00
9218,19.62,1040.17,668.43,668.43,-0.00,0.01,0.97,3.60,-1.22,-1.40,8.56,-84.93,-14.53,21.00
9250,19.62,1040.17,668.43,668.43,-0.01,0.01,0.97,3.74,-0.90,-1.58,8.57,-84.94,-14.58,21.00
9282,19.62,1040.17,668.43,668.43,0.00,0.00,0.97,3.63,-1.03,-1.37,8.56,-84.97,-14.62,20.51
9313,19.62,1040.18,668.38,668.42,-0.01,0.01,0.97,3.57,-0.94,-1.37,8.56,-84.98,-14.67,21.00
9345,19.62,1040.18,668.38,668.41,-0.01,0.01,0.97,3.55,-0.79,-1.52,8.57,-84.99,-14.71,20.02
9379,19.62,1040.18,668.38,668.40,-0.01,0.01,0.97,3.52,-0.59,-1.23,8.57,-85.00,-14.76,20.51
9410,19.62,1040.16,668.51,668.42,-0.01,0.01,0.97,3.72,-0.76,-1.40,8.57,-85.00,-14.80,21.00
9441,19.62,1040.16,668.51,668.44,-0.01,0.01,0.97,3.71,-0.97,-1.26,8.58,-85.01,-14.84,20.02
9473,19.62,1040.16,668.51,668.46,-0.01,0.01,0.97,3.60,-0.96,-1.37,8.58,-85.03,-14.88,20.51
9505,19.62,1040.18,668.38,668.44,-0.00,0.01,0.97,3.63,-0.88,-1.61,8.58,-85.05,-14.93,21.00
9536,19.62,1040.18,668.38,668.43,-0.01,0.01,0.96,3.49,-1.09,-1.29,8.58,-85.07,-14.98,20.51
9570,19.62,1040.18,668.38,668.42,-0.01,0.01,0.98,3.71,-0.33,-1.29,8.59,-85.07,-15.02,20.51
9602,19.62,1040.16,668.49,668.43,-0.01,0.01,0.97,3.75,-1.03,-1.34,8.59,-85.08,-15.06,20.51
9634,19.62,1040.16,668.49,668.44,-0.02,0.01,0.97,3.80,-0.68,-1.32,8.60,-85.08,-15.10,21.00
9666,19.62,1040.16,668.49,668.45,-0.01,0.01,0.97,3.77,-1.02,-1.48,8.61,-85.10,-15.15,19.53
9697,19.62,1040.19,668.28,668.42,-0.01,0.01,0.97,3.65,-0.90,-1.45,8.60,-85.11,-15.20,20.51
9729,19.62,1040.19,668.28,668.39,-0.01,0.01,0.97,3.83,-0.77,-1.28,8.61,-85.11,-15.24,20.51
9763,19.62,1040.19,668.28,668.37,-0.01,0.01,0.98,3.43,-0.19,-1.42,8.62,-85.11,-15.28,20.02
9794,19.61,1040.16,668.53,668.40,-0.00,0.00,0.97,3.80,-0.47,-1.52,8.61,-85.11,-15.33,20.51
9825,19.61,1040.16,668.53,668.43,-0.01,0.01,0.97,3.69,-0.68,-1.58,8.61,-85.11,-15.38,20.51
9857,19.61,1040.16,668.53,668.45,-0.01,0.01,0.97,3.84,-1.08,-1.43,8.62,-85.12,-15.43,20.02
9889,19.62,1040.18,668.35,668.43,-0.01,0.00,0.97,3.68,-0.91,-1.40,8.62,-85.13,-15.47,21.00
9922,19.62,1040.18,668.35,668.41,-0.01,0.01,0.96,3.65,-0.93,-1.39,8.62,-85.14,-15.52,20.02
9953,19.62,1040.18,668.35,668.40,-0.01,0.01,0.97,3.75,-0.53,-1.52,8.63,-85.14,-15.56,20.51
9985,19.62,1040.16,668.54,668.43,-0.00,0.01,0.97,3.69,-0.96,-1.46,8.63,-85.15,-15.61,21.00
10017,19.62,1040.16,668.54,668.45,-0.01,0.01,0.97,3.75,-1.08,-1.36,8.63,-85.17,-15.65,21.00
10048,19.62,1040.16,668.54,668.47,-0.01,0.01,0.97,3.58,-0.87,-1.52,8.63,-85.18,-15.70,20.02
10080,19.62,1040.17,668.40,668.45,-0.01,0.01,0.97,3.51,-1.26,-1.52,8.63,-85.20,-15.75,21.00
10114,19.62,1040.17,668.40,668.44,-0.01,0.01,0.97,3.74,-0.25,-1.42,8.64,-85.18,-15.80,20.51
10146,19.62,1040.17,668.40,668.43,-0.01,0.01,0.97,3.68,-0.74,-1.34,8.64,-85.19,-15.84,20.51
10178,19.62,1040.18,668.31,668.41,-0.01,0.01,0.96,3.54,-1.25,-1.42,8.64,-85.20,-15.89,20.51
10209,19.62,1040.18,668.31,668.39,-0.01,0.00,0.97,3.65,-0.83,-1.54,8.63,-85.21,-15.93,20.51
10241,19.62,1040.18,668.31,668.37,-0.01,0.01,0.96,3.69,-1.25,-1.20,8.63,-85.23,-15.97,20.51
10275,19.62,1040.15,668.60,668.42,-0.01,0.01,0.97,3.55,-0.25,-1.48,8.63,-85.21,-16.02,20.51
10306,19.62,1040.15,668.60,668.45,-0.01,0.01,0.97,3.75,-0.61,-1.48,8.63,-85.21,-16.07,21.00
10337,19.62,1040.15,668.60,668.48,-0.02,0.01,0.96,3.68,-1.03,-1.34,8.63,-85.21,-16.11,20.51
10369,19.62,1040.16,668.49,668.49,-0.02,0.01,0.97,3.57,-0.77,-1.34,8.63,-85.21,-16.15,21.00
10401,19.62,1040.16,668.49,668.49,-0.01,0.01,0.97,3.62,-1.19,-1.52,8.63,-85.23,-16.20,21.00
10432,19.62,1040.16,668.49,668.49,-0.01,0.01,0.98,3.65,-0.70,-1.49,8.62,-85.22,-16.25,20.51
10466,19.62,1040.18,668.36,668.46,-0.00,0.01,0.97,3.62,-0.61,-1.45,8.63,-85.23,-16.30,20.51
10498,19.62,1040.18,668.36,668.44,-0.02,0.01,0.98,3.74,-0.76,-1.39,8.63,-85.22,-16.34,21.00
10530,19.62,1040.18,668.36,668.43,-0.01,0.01,0.96,3.75,-0.53,-1.54,8.64,-85.22,-16.39,21.00
10562,19.62,1040.18,668.34,668.41,-0.02,0.01,0.97,3.72,-1.02,-1.13,8.65,-85.23,-16.43,20.51
10593,19.62,1040.18,668.34,668.40,-0.01,0.01,0.97,3.74,-0.56,-1.49,8.65,-85.23,-16.47,20.02
10627,19.62,1040.18,668.34,668.38,-0.00,0.01,0.97,3.32,-0.16,-1.68,8.65,-85.22,-16.53,19.53
10659,19.62,1040.17,668.40,668.39,-0.02,0.01,0.97,3.55,-0.19,-1.65,8.65,-85.20,-16.58,20.02
10690,19.62,1040.17,668.40,668.39,-0.01,0.01,0.97,3.63,-0.44,-1.75,8.64,-85.19,-16.64,21.00
10721,19.62,1040.17,668.40,668.39,-0.01,0.01,0.98,3.71,-0.82,-1.43,8.64,-85.20,-16.68,20.51
10753,19.62,1040.16,668.53,668.42,-0.01,0.01,0.98,3.71,-0.82,-1.52,8.65,-85.21,-16.73,21.00
10785,19.62,1040.16,668.53,668.44,-0.00,0.01,0.97,3.65,-1.00,-1.31,8.65,-85.22,-16.77,20.51
10818,19.62,1040.16,668.53,668.46,-0.01,0.01,0.97,3.77,-1.05,-1.32,8.66,-85.24,-16.82,20.51
10849,19.62,1040.17,668.44,668.46,-0.01,0.01,0.97,3.80,-0.77,-1.46,8.66,-85.24,-16.86,21.00
10881,19.62,1040.17,668.44,668.45,-0.01,0.01,0.97,3.71,-1.03,-1.40,8.66,-85.25,-16.91,21.00
10913,19.62,1040.17,668.44,668.45,-0.01,0.00,0.98,3.74,-0.91,-1.34,8.66,-85.25,-16.95,21.00
10944,19.62,1040.17,668.47,668.45,-0.01,0.01,0.97,3.57,-1.00,-1.48,8.66,-85.26,-17.00,21.00
10978,19.62,1040.17,668.47,668.46,-0.01,0.01,0.98,3.57,-0.56,-1.46,8.65,-85.25,-17.05,19.53
11010,19.62,1040.17,668.47,668.46,-0.01,0.01,0.96,3.77,-0.67,-1.54,8.66,-85.26,-17.09,19.53
11042,19.62,1040.16,668.50,668.47,-0.01,0.01,0.97,3.81,-0.97,-1.42,8.67,-85.26,-17.14,21.00
11074,19.62,1040.16,668.50,668.47,-0.01,0.01,0.96,3.72,-0.83,-1.40,8.67,-85.26,-17.18,21.00
11105,19.62,1040.16,668.50,668.48,-0.01,0.01,0.97,3.71,-1.03,-1.58,8.67,-85.27,-17.23,19.53
11137,19.62,1040.16,668.53,668.49,-0.01,0.01,0.97,3.81,-0.96,-1.31,8.67,-85.28,-17.28,19.53
11171,19.62,1040.16,668.53,668.50,-0.01,0.01,0.98,3.54,0.14,-1.55,8.67,-85.26,-17.33,20.02
11202,19.62,1040.16,668.53,668.50,-0.01,0.01,0.97,3.58,-0.82,-1.52,8.67,-85.25,-17.38,19.53
11233,19.62,1040.18,668.39,668.48,-0.01,0.01,0.97,3.89,-0.58,-1.48,8.67,-85.24,-17.42,20.51
11265,19.62,1040.18,668.39,668.46,-0.01,0.01,0.97,3.75,-0.96,-1.48,8.68,-85.26,-17.47,21.00
11297,19.62,1040.18,668.39,668.45,-0.01,0.01,0.97,3.77,-0.79,-1.54,8.68,-85.26,-17.52,21.00
11330,19.62,1040.16,668.50,668.46,0.00,0.01,0.97,3.51,-0.27,-1.48,8.68,-85.26,-17.57,20.02
11361,19.62,1040.16,668.50,668.47,-0.01,0.01,0.97,3.63,-0.29,-1.45,8.67,-85.24,-17.61,21.00
11393,19.62,1040.16,668.50,668.47,-0.01,0.01,0.97,3.57,-0.30,-1.71,8.67,-85.22,-17.67,20.02
11425,19.62,1040.14,668.66,668.51,-0.00,0.01,0.97,3.71,-0.47,-1.55,8.67,-85.22,-17.72,20.51
11456,19.62,1040.14,668.66,668.54,-0.02,0.01,0.97,3.74,-0.30,-1.55,8.68,-85.20,-17.77,21.00
11488,19.62,1040.14,668.66,668.56,-0.01,0.01,0.96,3.58,-0.45,-1.61,8.68,-85.20,-17.82,20.51
11528,19.62,1040.14,668.67,668.59,-0.01,0.00,0.97,3.45,-0.74,-1.75,8.69,-85.21,-17.89,20.02
11560,19.62,1040.14,668.67,668.60,-0.02,0.01,0.97,3.55,-0.35,-1.43,8.68,-85.19,-17.93,21.00
11591,19.62,1040.14,668.67,668.62,-0.00,0.01,0.97,3.46,-0.09,-1.75,8.68,-85.18,-17.99,20.51
11622,19.62,1040.16,668.49,668.59,-0.01,0.01,0.96,3.46,-0.33,-1.61,8.67,-85.17,-18.04,20.51
11654,19.62,1040.16,668.49,668.57,-0.01,0.01,0.97,3.71,0.20,-1.71,8.67,-85.14,-18.09,21.00
11688,19.62,1040.16,668.49,668.56,-0.01,0.01,0.97,3.36,-0.68,-1.43,8.67,-85.15,-18.14,21.00
11719,19.62,1040.17,668.47,668.54,-0.01,0.01,0.97,3.45,-0.01,-1.61,8.66,-85.13,-18.19,20.51
11750,19.62,1040.17,668.47,668.52,0.00,0.01,0.97,3.46,-0.09,-1.65,8.66,-85.13,-18.24,21.00
11782,19.62,1040.17,668.47,668.51,-0.02,0.01,0.98,3.52,-0.38,-1.31,8.65,-85.11,-18.28,21.00
11814,19.62,1040.15,668.60,668.53,-0.01,0.01,0.98,3.48,0.01,-1.69,8.64,-85.10,-18.34,21.00
11845,19.62,1040.15,668.60,668.54,-0.01,0.01,0.97,3.62,-0.68,-1.46,8.63,-85.10,-18.38,21.00
11878,19.62,1040.15,668.60,668.55,-0.01,0.01,0.97,3.63,-0.07,-1.43,8.64,-85.08,-18.43,21.00
11910,19.62,1040.15,668.58,668.56,-0.01,0.01,0.98,3.49,-0.22,-1.61,8.63,-85.07,-18.48,20.02
11942,19.62,1040.15,668.58,668.56,-0.01,0.01,0.97,3.45,-0.33,-1.58,8.63,-85.07,-18.53,20.51
11973,19.62,1040.15,668.58,668.56,-0.01,0.01,0.97,3.80,-0.32,-1.48,8.63,-85.06,-18.58,21.00
12004,19.62,1040.17,668.41,668.53,-0.01,0.01,0.97,3.60,-0.53,-1.39,8.63,-85.06,-18.62,21.00
12038,19.62,1040.17,668.41,668.51,-0.02,0.01,0.96,3.46,-0.01,-1.77,8.63,-85.04,-18.68,20.02
12070,19.62,1040.17,668.41,668.49,-0.00,0.01,0.97,3.55,-0.38,-1.69,8.63,-85.04,-18.73,21.00
12101,19.62,1040.16,668.50,668.49,-0.02,0.01,0.97,3.58,-0.27,-1.51,8.62,-85.02,-18.78,20.02
12132,19.62,1040.16,668.50,668.49,-0.00,0.01,0.97,3.68,-0.35,-1.63,8.62,-85.02,-18.83,21.00
12164,19.62,1040.16,668.50,668.49,-0.02,0.01,0.97,3.71,-0.70,-1.34,8.62,-85.02,-18.87,21.00
12196,19.62,1040.14,668.70,668.54,-0.00,0.01,0.97,3.68,-0.03,-1.51,8.63,-85.01,-18.92,20.02
12229,19.62,1040.14,668.70,668.57,-0.00,0.01,0.97,3.43,-0.24,-1.72,8.63,-85.01,-18.98,20.02
12260,19.62,1040.14,668.70,668.59,-0.02,0.02,0.97,3.43,-0.12,-1.58,8.62,-84.99,-19.03,21.00
12292,19.62,1040.15,668.57,668.59,-0.01,0.00,0.97,3.49,-0.04,-1.58,8.61,-84.97,-19.08,20.51
12324,19.62,1040.15,668.57,668.58,-0.01,0.01,0.96,3.49,-0.74,-1.40,8.61,-84.98,-19.12,20.51
12355,19.62,1040.15,668.57,668.58,-0.01,0.01,0.97,3.71,-0.91,-1.58,8.61,-84.99,-19.17,21.00
12388,19.62,1040.14,668.64,668.59,-0.01,0.00,0.97,3.54,-0.35,-1.69,8.61,-84.99,-19.23,21.00
12420,19.62,1040.14,668.64,668.60,-0.01,0.01,0.97,3.55,-0.01,-1.55,8.61,-84.97,-19.28,21.00
12452,19.62,1040.14,668.64,668.61,-0.00,0.01,0.97,3.55,-0.25,-1.51,8.60,-84.97,-19.33,21.00
12483,19.62,1040.15,668.61,668.61,-0.01,0.01,0.97,3.68,-0.76,-1.28,8.60,-84.97,-19.37,21.00
12514,19.62,1040.15,668.61,668.61,-0.01,0.01,0.97,3.80,-0.77,-1.46,8.60,-84.98,-19.41,19.53
12546,19.62,1040.15,668.61,668.61,-0.01,0.01,0.97,3.74,-1.16,-1.45,8.61,-85.00,-19.46,21.00
12580,19.62,1040.16,668.48,668.58,-0.01,0.01,0.98,3.60,0.07,-1.57,8.61,-84.98,-19.51,20.51
12611,19.62,1040.16,668.48,668.56,-0.00,0.01,0.96,3.60,-0.96,-1.39,8.60,-85.00,-19.55,21.00
12642,19.62,1040.16,668.48,668.54,-0.02,0.01,0.97,3.81,-0.93,-1.51,8.61,-85.00,-19.60,21.00
12674,19.62,1040.15,668.61,668.56,0.00,0.01,0.97,3.62,-0.77,-1.40,8.61,-85.02,-19.65,21.00
12706,19.62,1040.15,668.61,668.57,-0.01,0.01,0.97,3.71,-0.91,-1.34,8.62,-85.03,-19.69,21.00
12739,19.62,1040.15,668.61,668.58,-0.02,0.01,0.98,3.78,-0.25,-1.74,8.62,-85.01,-19.75,20.51
12770,19.62,1040.15,668.68,668.60,-0.01,0.01,0.97,3.68,-0.35,-1.52,8.62,-85.00,-19.79,20.51
12802,19.62,1040.14,668.68,668.61,-0.01,0.01,0.97,3.54,-0.35,-1.45,8.62,-84.99,-19.84,21.00
12834,19.62,1040.14,668.68,668.63,-0.01,0.01,0.98,3.60,-0.29,-1.45,8.63,-84.99,-19.89,21.00
12866,19.62,1040.14,668.68,668.64,-0.01,0.01,0.96,3.72,-0.54,-1.43,8.63,-84.98,-19.93,20.51
12897,19.62,1040.15,668.60,668.63,-0.01,0.01,0.98,3.74,-0.70,-1.45,8.63,-84.99,-19.98,20.02
12931,19.62,1040.15,668.60,668.62,-0.00,0.01,0.96,3.60,-0.16,-1.68,8.64,-84.99,-20.03,21.00
12963,19.62,1040.15,668.60,668.62,-0.01,0.01,0.97,3.48,-0.09,-1.72,8.64,-84.97,-20.09,20.51
12994,19.62,1040.17,668.43,668.58,-0.01,0.01,0.97,3.71,-0.64,-1.48,8.63,-84.98,-20.13,21.00
13025,19.62,1040.17,668.43,668.55,-0.01,0.01,0.97,3.77,-1.05,-1.39,8.64,-84.99,-20.18,19.53
13057,19.62,1040.17,668.43,668.53,-0.00,0.01,0.98,3.72,-0.79,-1.42,8.64,-85.01,-20.22,20.51
13091,19.62,1040.13,668.78,668.58,-0.00,0.01,0.97,3.43,-0.48,-1.54,8.64,-85.02,-20.28,19.53
13122,19.62,1040.13,668.78,668.62,-0.01,0.01,0.97,3.78,-0.48,-1.32,8.64,-85.01,-20.32,21.00
13153,19.62,1040.13,668.78,668.65,-0.00,0.01,0.97,3.84,-0.93,-1.52,8.64,-85.04,-20.36,20.51
13185,19.62,1040.14,668.66,668.65,-0.02,0.01,0.96,3.74,-0.83,-1.46,8.65,-85.04,-20.41,20.51
13217,19.62,1040.14,668.66,668.65,-0.01,0.01,0.97,3.65,-0.85,-1.61,8.65,-85.04,-20.46,20.51
13248,19.62,1040.14,668.66,668.65,-0.00,0.01,0.96,3.75,-1.14,-1.34,8.66,-85.07,-20.51,19.53
13282,19.62,1040.13,668.78,668.68,-0.02,0.01,0.98,3.57,-0.18,-1.58,8.66,-85.05,-20.56,20.02
13314,19.62,1040.13,668.78,668.70,-0.00,0.01,0.96,3.63,-0.29,-1.51,8.66,-85.05,-20.61,20.02
13346,19.62,1040.13,668.78,668.71,-0.01,0.01,0.97,3.58,-0.32,-1.51,8.65,-85.04,-20.65,21.00
13378,19.62,1040.15,668.62,668.70,-0.01,0.00,0.97,3.80,-0.13,-1.72,8.65,-85.02,-20.71,20.02
13409,19.62,1040.15,668.62,668.68,-0.01,0.01,0.97,3.57,-0.67,-1.43,8.65,-85.03,-20.75,20.51
13443,19.62,1040.15,668.62,668.67,-0.01,0.01,0.97,3.51,-0.24,-1.60,8.65,-85.01,-20.81,19.53
13475,19.62,1040.14,668.64,668.66,0.00,0.01,0.97,3.43,0.02,-1.61,8.64,-85.01,-20.86,21.00
13506,19.62,1040.14,668.64,668.66,-0.02,0.01,0.96,3.63,-0.56,-1.32,8.64,-85.00,-20.90,21.00
13537,19.62,1040.14,668.64,668.65,-0.01,0.01,0.97,3.72,-0.38,-1.36,8.63,-85.00,-20.94,21.00
13569,19.62,1040.13,668.72,668.67,-0.01,0.01,0.97,3.74,-1.05,-1.49,8.64,-85.02,-20.99,20.51
13601,19.62,1040.13,668.72,668.68,-0.02,0.01,0.97,3.72,-0.48,-1.32,8.65,-85.01,-21.03,21.00
13634,19.62,1040.13,668.72,668.69,-0.01,0.01,0.97,3.60,-0.32,-1.63,8.65,-85.00,-21.09,21.00
13665,19.62,1040.15,668.59,668.67,-0.02,0.01,0.97,3.42,-0.04,-1.54,8.64,-84.98,-21.13,21.00
13697,19.62,1040.15,668.59,668.65,-0.01,0.01,0.98,3.48,-0.19,-1.60,8.64,-84.97,-21.19,21.00
13729,19.62,1040.15,668.59,668.64,-0.01,0.01,0.97,3.57,-0.29,-1.54,8.63,-84.96,-21.23,20.51
13760,19.62,1040.16,668.49,668.61,-0.01,0.01,0.97,3.78,-0.35,-1.51,8.64,-84.96,-21.28,20.51
13794,19.62,1040.16,668.49,668.58,-0.01,0.01,0.97,3.37,-0.35,-1.61,8.63,-84.96,-21.34,21.00
13826,19.62,1040.16,668.49,668.56,-0.01,0.01,0.97,3.49,-0.13,-1.69,8.63,-84.95,-21.39,21.00
13858,19.62,1040.16,668.53,668.56,-0.01,0.01,0.98,3.63,-0.22,-1.57,8.64,-84.94,-21.44,20.51
13890,19.62,1040.16,668.53,668.55,-0.01,0.01,0.97,3.65,-0.15,-1.65,8.64,-84.93,-21.49,20.51
13921,19.62,1040.16,668.53,668.55,-0.02,0.01,0.97,3.75,0.01,-1.57,8.64,-84.90,-21.54,20.02
13953,19.62,1040.14,668.71,668.58,-0.00,0.01,0.97,3.60,-0.33,-1.34,8.64,-84.91,-21.58,21.00
13987,19.62,1040.14,668.71,668.61,-0.02,0.01,0.97,3.58,-0.41,-1.55,8.64,-84.90,-21.64,20.02
14018,19.62,1040.14,668.71,668.63,-0.00,0.01,0.96,3.58,-0.01,-1.63,8.63,-84.89,-21.69,20.51
14049,19.62,1040.12,668.80,668.66,-0.02,0.01,0.97,3.58,-0.44,-1.46,8.63,-84.88,-21.73,20.51
14081,19.62,1040.12,668.80,668.69,-0.01,0.01,0.97,3.43,0.14,-1.52,8.63,-84.86,-21.78,21.00
14113,19.62,1040.12,668.80,668.71,-0.01,0.01,0.97,3.46,-0.42,-1.61,8.63,-84.86,-21.83,20.51
14146,19.62,1040.14,668.66,668.70,-0.02,0.01,0.97,3.57,-0.07,-1.58,8.62,-84.84,-21.89,21.00
14177,19.62,1040.14,668.66,668.69,0.00,0.01,0.97,3.57,-0.09,-1.69,8.62,-84.84,-21.94,20.51
14209,19.62,1040.14,668.66,668.69,-0.01,0.02,0.97,3.66,-0.22,-1.51,8.63,-84.84,-21.99,20.02
14241,19.62,1040.15,668.56,668.66,-0.00,0.01,0.97,3.72,-0.03,-1.58,8.63,-84.83,-22.04,20.51
14272,19.62,1040.15,668.56,668.64,-0.01,0.00,0.98,3.54,-0.22,-1.66,8.62,-84.82,-22.09,21.00
14304,19.62,1040.15,668.56,668.62,-0.01,0.01,0.97,3.65,-0.21,-1.66,8.62,-84.81,-22.14,20.51
14338,19.61,1040.15,668.63,668.63,-0.01,0.00,0.97,3.42,-0.53,-1.61,8.61,-84.82,-22.20,20.02
14370,19.61,1040.15,668.63,668.63,-0.01,0.01,0.97,3.51,-0.44,-1.61,8.60,-84.82,-22.25,21.00
14402,19.61,1040.15,668.63,668.63,-0.01,0.01,0.96,3.54,-0.16,-1.61,8.60,-84.81,-22.30,21.00
14433,19.62,1040.13,668.76,668.65,-0.01,0.01,0.97,3.45,-0.45,-1.49,8.59,-84.81,-22.35,21.00
14465,19.62,1040.13,668.76,668.67,-0.01,0.01,0.97,3.57,0.04,-1.58,8.59,-84.80,-22.40,20.51
14499,19.62,1040.13,668.76,668.69,-0.01,0.01,0.98,3.62,-0.77,-1.54,8.60,-84.81,-22.45,21.00
14530,19.61,1040.16,668.52,668.66,-0.01,0.01,0.98,3.46,-0.44,-1.58,8.60,-84.81,-22.50,20.51
14561,19.61,1040.16,668.52,668.63,-0.00,0.01,0.97,3.36,-0.15,-1.71,8.58,-84.81,-22.55,20.02
14593,19.61,1040.16,668.52,668.61,-0.00,0.01,0.96,3.51,-0.45,-1.57,8.58,-84.82,-22.60,20.51
14625,19.61,1040.18,668.36,668.56,-0.01,0.01,0.97,3.51,-0.09,-1.61,8.58,-84.81,-22.65,21.00
14656,19.61,1040.18,668.36,668.52,-0.00,0.01,0.97,3.54,-0.09,-1.63,8.58,-84.81,-22.71,20.02
14690,19.61,1040.18,668.36,668.49,-0.01,0.01,0.97,3.52,-0.68,-1.45,8.58,-84.81,-22.75,20.02
14722,19.62,1040.15,668.58,668.51,-0.01,0.01,0.97,3.46,-0.68,-1.57,8.57,-84.82,-22.80,20.51
14754,19.62,1040.15,668.58,668.52,-0.01,0.01,0.97,3.63,-0.76,-1.45,8.58,-84.83,-22.85,20.51
14786,19.62,1040.15,668.58,668.53,-0.01,0.01,0.97,3.58,-0.59,-1.52,8.57,-84.84,-22.90,21.00
14817,19.62,1040.14,668.64,668.55,-0.00,0.01,0.97,3.42,-0.65,-1.66,8.56,-84.85,-22.95,21.00
14849,19.62,1040.14,668.64,668.57,-0.01,0.01,0.98,3.51,-0.48,-1.66,8.56,-84.85,-23.00,21.00
14878,19.62,1040.14,668.64,668.59,-0.00,0.01,0.97,3.68,-0.97,-1.51,8.55,-84.87,-23.05,21.00
14909,19.62,1040.18,668.38,668.54,-0.01,0.01,0.97,3.63,-0.88,-1.43,8.55,-84.88,-23.09,21.00
14941,19.62,1040.18,668.38,668.51,-0.01,0.01,0.97,3.62,-1.02,-1.43,8.56,-84.90,-23.14,20.51
14973,19.62,1040.18,668.38,668.48,-0.01,0.01,0.97,3.45,-1.26,-1.42,8.55,-84.93,-23.18,20.02
15004,19.62,1040.18,668.39,668.46,-0.01,0.01,0.97,3.57,-0.53,-1.81,8.55,-84.93,-23.24,20.51
15037,19.62,1040.18,668.39,668.45,-0.01,0.01,0.98,3.77,-0.88,-1.39,8.56,-84.95,-23.28,20.51
15069,19.62,1040.18,668.39,668.44,-0.02,0.01,0.97,3.75,-0.93,-1.46,8.56,-84.95,-23.33,19.53
15101,19.61,1040.17,668.42,668.43,-0.01,0.01,0.97,3.55,-0.91,-1.55,8.57,-84.97,-23.38,20.51
15132,19.61,1040.17,668.42,668.43,-0.02,0.01,0.98,3.58,-0.54,-1.40,8.57,-84.96,-23.42,20.51
15163,19.61,1040.17,668.42,668.43,-0.00,0.00,0.97,3.49,-0.10,-1.65,8.56,-84.96,-23.48,19.53
15195,19.61,1040.17,668.43,668.43,-0.01,0.01,0.97,3.57,-0.22,-1.49,8.55,-84.95,-23.52,20.51
15229,19.61,1040.17,668.43,668.43,-0.01,0.01,0.97,3.69,-0.71,-1.34,8.56,-84.96,-23.57,21.00
15260,19.61,1040.17,668.43,668.43,-0.01,0.01,0.97,3.51,-0.83,-1.63,8.55,-84.96,-23.62,21.00
15291,19.61,1040.18,668.37,668.42,-0.01,0.01,0.97,3.57,-0.39,-1.42,8.55,-84.95,-23.66,20.02
15323,19.61,1040.18,668.37,668.41,-0.01,0.01,0.96,3.49,-0.24,-1.55,8.55,-84.95,-23.71,21.00
15355,19.61,1040.18,668.37,668.40,-0.01,0.01,0.98,3.52,-0.27,-1.63,8.55,-84.94,-23.77,21.00
15388,19.61,1040.19,668.26,668.37,-0.01,0.01,0.97,3.60,-0.54,-1.58,8.56,-84.94,-23.82,21.00
15419,19.61,1040.19,668.26,668.35,-0.01,0.01,0.98,3.51,-0.59,-1.52,8.55,-84.95,-23.86,20.02
15451,19.61,1040.19,668.26,668.33,-0.02,0.01,0.97,3.62,-0.61,-1.51,8.55,-84.94,-23.91,21.00
15483,19.61,1040.18,668.38,668.34,-0.01,0.01,0.97,3.54,-0.30,-1.71,8.55,-84.94,-23.97,21.48
15514,19.61,1040.18,668.38,668.35,-0.02,0.01,0.97,3.42,-0.24,-1.37,8.54,-84.92,-24.01,20.51
15545,19.61,1040.18,668.38,668.36,-0.02,0.01,0.98,3.54,0.04,-1.51,8.54,-84.90,-24.06,21.00
15579,19.61,1040.18,668.28,668.34,-0.00,0.01,0.98,3.46,-0.83,-1.54,8.55,-84.92,-24.11,21.00
15611,19.61,1040.19,668.28,668.33,-0.01,0.01,0.96,3.36,-0.53,-1.45,8.55,-84.92,-24.16,21.00
15642,19.61,1040.19,668.28,668.32,-0.00,0.01,0.97,3.58,-0.21,-1.63,8.54,-84.92,-24.21,20.51
15673,19.61,1040.19,668.28,668.31,-0.02,0.01,0.97,3.62,-0.30,-1.57,8.55,-84.90,-24.25,21.00
15705,19.61,1040.16,668.48,668.34,-0.00,0.01,0.96,3.62,-0.22,-1.58,8.55,-84.90,-24.31,20.51
15739,19.61,1040.16,668.48,668.37,-0.01,0.01,0.96,3.66,-0.88,-1.39,8.55,-84.92,-24.35,21.00
15770,19.61,1040.16,668.48,668.39,-0.01,0.01,0.97,3.62,0.02,-1.72,8.55,-84.91,-24.41,21.00
15801,19.62,1040.17,668.41,668.40,-0.01,0.01,0.97,3.52,-0.41,-1.58,8.55,-84.91,-24.45,20.51
15833,19.62,1040.17,668.41,668.40,-0.02,0.01,0.97,3.46,-0.24,-1.48,8.54,-84.90,-24.50,20.51
15865,19.62,1040.17,668.41,668.40,-0.01,0.01,0.97,3.58,-0.07,-1.66,8.55,-84.89,-24.56,20.51
15896,19.61,1040.21,668.07,668.34,-0.02,0.01,0.96,3.81,-0.68,-1.51,8.56,-84.89,-24.60,21.00
15929,19.61,1040.21,668.07,668.28,-0.01,0.01,0.97,3.68,-0.01,-1.84,8.56,-84.88,-24.66,20.51
15961,19.61,1040.21,668.07,668.24,-0.01,0.01,0.98,3.54,-0.07,-1.65,8.56,-84.87,-24.72,20.51
15993,19.61,1040.17,668.47,668.29,-0.01,0.01,0.97,3.54,-0.29,-1.49,8.56,-84.86,-24.76,21.00
16024,19.61,1040.17,668.47,668.32,-0.00,0.01,0.98,3.78,-0.67,-1.52,8.56,-84.87,-24.81,21.00
16055,19.61,1040.17,668.47,668.35,-0.00,0.01,0.97,3.51,-0.99,-1.42,8.56,-84.90,-24.85,19.53
16089,19.61,1040.16,668.50,668.38,-0.02,0.01,0.97,3.52,-0.10,-1.54,8.57,-84.88,-24.91,20.51
16121,19.61,1040.16,668.50,668.41,-0.00,0.01,0.97,3.45,-0.07,-1.60,8.56,-84.88,-24.96,20.51
16152,19.61,1040.16,668.50,668.42,-0.02,0.02,0.97,3.71,-0.32,-1.40,8.57,-84.86,-25.00,21.00
16183,19.61,1040.16,668.54,668.45,0.00,0.01,0.97,3.71,-0.54,-1.63,8.58,-84.88,-25.05,20.51
16215,19.61,1040.16,668.54,668.47,-0.02,0.00,0.97,3.55,-0.83,-1.42,8.57,-84.88,-25.10,20.51
16247,19.61,1040.16,668.54,668.48,-0.01,0.01,0.97,3.83,-0.64,-1.37,8.58,-84.89,-25.14,21.00
16280,19.61,1040.18,668.38,668.46,-0.01,0.00,0.97,3.65,-0.59,-1.48,8.57,-84.89,-25.19,21.00
16311,19.61,1040.18,668.38,668.45,-0.02,0.01,0.97,3.66,-0.09,-1.61,8.58,-84.87,-25.24,21.00
16343,19.61,1040.18,668.38,668.43,-0.00,0.01,0.97,3.66,-0.42,-1.39,8.58,-84.88,-25.28,20.51
16375,19.61,1040.20,668.22,668.39,-0.01,0.01,0.97,3.68,-0.41,-1.60,8.58,-84.87,-25.34,19.53
16407,19.61,1040.20,668.22,668.36,-0.00,0.01,0.97,3.57,-0.32,-1.57,8.58,-84.88,-25.39,20.02
16440,19.61,1040.20,668.22,668.33,-0.01,0.01,0.97,3.36,-0.24,-1.54,8.57,-84.87,-25.44,20.51
16472,19.62,1040.14,668.66,668.39,-0.01,0.01,0.97,3.40,-0.07,-1.52,8.57,-84.86,-25.49,20.51
16504,19.62,1040.14,668.66,668.45,-0.01,0.01,0.97,3.72,0.07,-1.80,8.57,-84.85,-25.54,21.00
16535,19.62,1040.14,668.66,668.49,-0.01,0.01,0.98,3.57,-0.36,-1.54,8.57,-84.84,-25.59,20.51
16566,19.61,1040.16,668.48,668.49,-0.01,0.01,0.98,3.63,-0.30,-1.55,8.57,-84.84,-25.64,20.02
16598,19.61,1040.16,668.48,668.49,-0.01,0.01,0.97,3.78,-0.65,-1.45,8.57,-84.85,-25.68,21.00
16632,19.61,1040.16,668.48,668.48,-0.01,0.01,0.97,3.57,-0.18,-1.60,8.57,-84.84,-25.74,20.51
16663,19.61,1040.16,668.50,668.49,-0.00,0.01,0.96,3.49,-0.42,-1.63,8.57,-84.85,-25.79,20.02
16694,19.61,1040.16,668.50,668.49,-0.01,0.01,0.97,3.58,-0.36,-1.37,8.57,-84.85,-25.83,21.00
16726,19.61,1040.16,668.50,668.49,-0.00,0.00,0.97,3.52,-0.25,-1.71,8.56,-84.85,-25.89,21.00
16757,19.61,1040.16,668.50,668.49,-0.02,0.00,0.97,3.77,-1.05,-1.34,8.55,-84.86,-25.93,20.51
16791,19.61,1040.16,668.50,668.50,-0.02,0.01,0.97,3.40,0.10,-1.71,8.56,-84.84,-25.99,20.02
16822,19.61,1040.16,668.50,668.50,-0.01,0.01,0.98,3.58,-0.19,-1.60,8.56,-84.83,-26.04,20.02
16854,19.61,1040.20,668.22,668.44,-0.02,0.01,0.97,3.72,-0.03,-1.71,8.56,-84.81,-26.09,21.00
16885,19.61,1040.20,668.22,668.40,-0.01,0.01,0.97,3.72,-0.82,-1.55,8.56,-84.82,-26.14,20.51
16916,19.61,1040.20,668.22,668.36,-0.01,0.01,0.97,3.57,-1.05,-1.20,8.56,-84.84,-26.18,19.53
16948,19.61,1040.19,668.23,668.33,-0.01,0.01,0.98,3.71,-0.85,-1.58,8.56,-84.86,-26.23,20.51
16982,19.61,1040.19,668.23,668.31,-0.00,0.01,0.98,3.57,-0.35,-1.75,8.56,-84.86,-26.29,21.00
17013,19.61,1040.19,668.23,668.30,-0.02,0.01,0.97,3.66,-0.42,-1.37,8.56,-84.85,-26.33,20.02
17044,19.61,1040.17,668.39,668.31,-0.00,0.00,0.98,3.69,-0.68,-1.52,8.56,-84.86,-26.38,20.51
17076,19.61,1040.17,668.39,668.33,-0.01,0.00,0.97,3.49,-0.45,-1.49,8.54,-84.87,-26.42,21.00
17108,19.61,1040.17,668.39,668.34,-0.00,0.01,0.97,3.65,-0.30,-1.51,8.55,-84.87,-26.47,21.00
17141,19.62,1040.17,668.45,668.36,-0.01,0.01,0.97,3.48,-0.19,-1.43,8.55,-84.87,-26.52,20.51
17172,19.62,1040.17,668.45,668.38,-0.02,0.01,0.97,3.42,0.11,-1.66,8.54,-84.84,-26.57,20.51
17204,19.62,1040.17,668.45,668.40,-0.01,0.01,0.97,3.63,-0.19,-1.66,8.54,-84.84,-26.62,20.51
17236,19.62,1040.18,668.32,668.38,-0.01,0.01,0.98,3.81,0.22,-1.48,8.55,-84.81,-26.67,20.02
17267,19.62,1040.18,668.32,668.37,-0.00,0.01,0.97,3.60,-0.97,-1.52,8.55,-84.84,-26.72,20.02
17298,19.62,1040.18,668.32,668.36,-0.01,0.01,0.97,3.75,-1.03,-1.36,8.55,-84.85,-26.76,20.02
17332,19.61,1040.18,668.33,668.35,-0.01,0.01,0.98,3.58,0.23,-1.65,8.56,-84.83,-26.82,20.51
17364,19.61,1040.18,668.33,668.35,-0.00,0.01,0.96,3.45,-0.39,-1.58,8.56,-84.84,-26.87,20.51
17395,19.61,1040.18,668.33,668.35,-0.01,0.02,0.97,3.72,-0.96,-1.43,8.57,-84.85,-26.91,21.00
17426,19.61,1040.18,668.37,668.35,-0.00,0.01,0.97,3.66,-1.05,-1.40,8.57,-84.88,-26.95,19.53
17458,19.61,1040.18,668.37,668.35,-0.01,0.01,0.97,3.63,-0.91,-1.42,8.57,-84.89,-27.00,21.00
17492,19.61,1040.18,668.37,668.36,-0.02,0.01,0.98,3.77,-0.90,-1.49,8.58,-84.90,-27.05,20.51
17523,19.61,1040.17,668.43,668.37,-0.01,0.01,0.97,3.54,-1.09,-1.51,8.57,-84.92,-27.10,20.02
17554,19.61,1040.17,668.43,668.39,-0.01,0.01,0.97,3.52,-0.65,-1.46,8.57,-84.92,-27.14,21.00
17586,19.61,1040.17,668.43,668.39,-0.01,0.01,0.96,3.62,-0.91,-1.58,8.57,-84.94,-27.19,19.53
17618,19.62,1040.16,668.51,668.42,-0.02,0.01,0.97,3.42,-0.70,-1.54,8.57,-84.93,-27.24,20.51
17649,19.62,1040.16,668.51,668.44,-0.01,0.01,0.98,3.57,-0.30,-1.49,8.57,-84.93,-27.29,20.51
17682,19.62,1040.16,668.51,668.45,-0.01,0.00,0.97,3.63,-0.88,-1.36,8.56,-84.95,-27.33,21.00
17714,19.62,1040.15,668.55,668.47,-0.01,0.01,0.97,3.65,-0.80,-1.55,8.57,-84.95,-27.38,20.51
17746,19.62,1040.15,668.55,668.49,-0.01,0.01,0.98,3.48,-1.12,-1.43,8.57,-84.98,-27.43,20.02
17777,19.62,1040.15,668.55,668.50,-0.01,0.01,0.97,3.52,-0.42,-1.40,8.56,-84.97,-27.47,21.00
17808,19.61,1040.15,668.56,668.51,-0.01,0.01,0.97,3.46,-0.35,-1.80,8.55,-84.97,-27.53,20.02
17842,19.61,1040.15,668.56,668.52,-0.01,0.01,0.97,3.77,-1.02,-1.23,8.56,-84.99,-27.57,19.53
17874,19.61,1040.15,668.56,668.53,-0.01,0.01,0.96,3.62,-0.87,-1.37,8.56,-85.00,-27.61,21.00
17905,19.61,1040.15,668.61,668.55,-0.01,0.01,0.98,3.43,-0.71,-1.58,8.55,-85.00,-27.66,20.51
17936,19.61,1040.15,668.61,668.56,-0.01,0.01,0.97,3.42,-0.22,-1.61,8.54,-84.99,-27.71,19.53
17968,19.61,1040.15,668.61,668.57,-0.00,0.01,0.98,3.58,-0.06,-1.69,8.55,-84.98,-27.77,20.51
18000,19.61,1040.15,668.43,668.54,-0.02,0.01,0.97,3.43,-0.29,-1.57,8.54,-84.97,-27.82,20.51
18033,19.62,1040.17,668.43,668.52,-0.01,0.01,0.97,3.51,-0.36,-1.61,8.54,-84.96,-27.87,20.02
18064,19.62,1040.17,668.43,668.50,-0.01,0.02,0.97,3.58,-0.56,-1.45,8.55,-84.97,-27.92,21.00
18096,19.62,1040.17,668.54,668.51,-0.01,0.01,0.96,3.58,-0.25,-1.57,8.54,-84.95,-27.97,20.51
18128,19.61,1040.17,668.44,668.49,-0.00,0.01,0.96,3.55,-0.15,-1.71,8.55,-84.95,-28.02,21.00
18159,19.61,1040.17,668.44,668.48,-0.01,0.01,0.97,3.63,-0.30,-1.68,8.55,-84.94,-28.07,20.02
18192,19.61,1040.17,668.44,668.47,-0.01,0.01,0.97,3.57,-0.32,-1.57,8.55,-84.93,-28.12,19.53
18224,19.61,1040.17,668.44,668.47,-0.00,0.01,0.97,3.72,-0.59,-1.61,8.56,-84.94,-28.18,21.00
18256,19.61,1040.17,668.44,668.46,-0.02,0.01,0.97,3.49,-0.29,-1.71,8.55,-84.92,-28.23,20.51
18287,19.61,1040.17,668.44,668.46,-0.00,0.01,0.98,3.55,-0.44,-1.63,8.55,-84.93,-28.28,19.53
18318,19.62,1040.17,668.40,668.45,-0.01,0.01,0.97,3.78,-0.67,-1.36,8.55,-84.93,-28.32,21.48
18350,19.62,1040.17,668.40,668.44,-0.01,0.01,0.97,3.65,-0.77,-1.37,8.56,-84.94,-28.37,21.48
18384,19.62,1040.17,668.40,668.43,-0.01,0.02,0.97,3.60,-0.30,-1.77,8.57,-84.94,-28.43,21.00
18415,19.62,1040.17,668.41,668.43,-0.01,0.01,0.97,3.49,-0.12,-1.71,8.57,-84.92,-28.48,21.00
18446,19.62,1040.17,668.41,668.42,-0.01,0.01,0.97,3.65,-0.45,-1.52,8.57,-84.92,-28.53,20.51
18478,19.62,1040.17,668.41,668.42,-0.01,0.02,0.97,3.69,-0.35,-1.37,8.58,-84.92,-28.57,20.51
18510,19.61,1040.17,668.42,668.42,-0.01,0.01,0.97,3.63,-0.50,-1.65,8.58,-84.92,-28.62,20.51
18543,19.61,1040.17,668.42,668.42,-0.01,0.01,0.97,3.52,-0.33,-1.60,8.58,-84.92,-28.68,20.51
18574,19.61,1040.17,668.42,668.42,-0.01,0.01,0.97,3.66,-0.13,-1.52,8.57,-84.90,-28.72,20.51
18606,19.61,1040.15,668.56,668.45,-0.00,0.02,0.97,3.52,-0.47,-1.57,8.58,-84.91,-28.77,21.00
18638,19.61,1040.15,668.56,668.47,-0.02,0.01,0.98,3.71,-0.18,-1.63,8.59,-84.89,-28.83,21.00
18669,19.61,1040.15,668.56,668.49,-0.00,0.01,0.97,3.65,-1.00,-1.34,8.59,-84.91,-28.87,20.02
18700,19.62,1040.16,668.50,668.49,-0.01,0.01,0.97,3.65,-1.09,-1.48,8.59,-84.93,-28.91,20.51
18734,19.62,1040.16,668.50,668.49,-0.01,0.01,0.96,3.63,0.07,-1.71,8.60,-84.92,-28.97,21.00
18766,19.62,1040.16,668.50,668.50,-0.00,0.01,0.97,3.63,-0.56,-1.55,8.60,-84.93,-29.02,19.53
18797,19.62,1040.15,668.55,668.51,-0.01,0.01,0.97,3.66,-0.82,-1.37,8.60,-84.94,-29.06,20.51
18828,19.62,1040.15,668.55,668.52,-0.00,0.01,0.97,3.78,-0.87,-1.52,8.60,-84.96,-29.11,20.51
18860,19.62,1040.15,668.55,668.52,-0.01,0.01,0.97,3.62,-1.00,-1.52,8.60,-84.97,-29.16,21.00
18894,19.62,1040.17,668.47,668.51,-0.00,0.01,0.97,3.58,0.02,-1.74,8.61,-84.96,-29.22,21.00
18925,19.62,1040.17,668.47,668.50,-0.01,0.01,0.97,3.60,-1.00,-1.42,8.60,-84.98,-29.26,20.02
18956,19.62,1040.17,668.47,668.50,-0.01,0.01,0.97,3.77,-0.96,-1.48,8.60,-85.00,-29.31,21.00
18988,19.62,1040.14,668.67,668.53,-0.00,0.01,0.97,3.60,-0.93,-1.39,8.60,-85.02,-29.35,20.02
19020,19.62,1040.14,668.67,668.56,-0.02,0.01,0.98,3.65,-0.85,-1.32,8.60,-85.02,-29.40,20.02
19051,19.62,1040.14,668.67,668.58,0.00,0.01,0.97,3.55,-0.77,-1.45,8.60,-85.04,-29.44,21.00
19085,19.62,1040.14,668.67,668.60,-0.01,0.00,0.97,3.58,-0.53,-1.55,8.60,-85.03,-29.49,20.02
19117,19.62,1040.14,668.67,668.61,-0.01,0.01,0.97,3.71,-0.41,-1.49,8.60,-85.03,-29.54,20.51
19149,19.62,1040.14,668.67,668.62,-0.01,0.01,0.96,3.66,-0.88,-1.42,8.60,-85.04,-29.59,21.00
19181,19.61,1040.16,668.48,668.59,-0.02,0.01,0.97,3.74,-0.56,-1.54,8.61,-85.03,-29.64,21.48
19212,19.61,1040.16,668.48,668.57,-0.00,0.01,0.97,3.72,-1.02,-1.36,8.61,-85.05,-29.68,20.02
19246,19.61,1040.16,668.48,668.55,-0.01,0.01,0.97,3.43,-0.18,-1.69,8.62,-85.04,-29.73,20.51
19278,19.61,1040.17,668.41,668.52,-0.01,0.01,0.97,3.60,-0.15,-1.69,8.62,-85.03,-29.79,21.00
19309,19.61,1040.17,668.41,668.50,-0.01,0.00,0.97,3.81,-0.96,-1.36,8.62,-85.03,-29.83,20.51
19340,19.61,1040.17,668.41,668.48,-0.01,0.01,0.97,3.63,-0.77,-1.51,8.62,-85.04,-29.88,20.02
19372,19.61,1040.16,668.50,668.49,-0.01,0.01,0.97,3.68,-0.96,-1.32,8.62,-85.05,-29.92,20.02
19404,19.61,1040.16,668.50,668.49,-0.01,0.00,0.97,3.81,-1.17,-1.46,8.61,-85.06,-29.97,20.02
19437,19.61,1040.16,668.50,668.49,-0.01,0.01,0.97,3.87,-0.91,-1.31,8.63,-85.08,-30.01,20.51
19468,19.61,1040.17,668.43,668.48,-0.01,0.01,0.97,3.74,-0.94,-1.32,8.62,-85.09,-30.05,20.02
19500,19.61,1040.17,668.43,668.47,-0.01,0.01,0.98,3.81,-0.79,-1.52,8.62,-85.09,-30.10,21.00
19532,19.61,1040.17,668.43,668.46,-0.01,0.01,0.97,3.77,-0.82,-1.26,8.62,-85.10,-30.14,21.00
19563,19.61,1040.16,668.53,668.47,-0.02,0.01,0.97,3.66,-0.88,-1.32,8.63,-85.10,-30.18,21.00
19597,19.61,1040.16,668.53,668.49,-0.01,0.01,0.97,3.63,-0.18,-1.60,8.64,-85.09,-30.24,20.51
19629,19.61,1040.16,668.53,668.49,0.19,0.02,1.03,3.05,9.58,-6.24,8.63,-84.99,-30.43,21.00
19661,19.61,1040.16,668.52,668.50,0.02,-0.01,0.93,4.90,-4.76,4.57,8.66,-85.16,-30.29,20.51
19693,19.61,1040.16,668.52,668.50,0.01,0.01,0.99,2.44,-3.60,-4.13,8.62,-85.27,-30.42,20.51
19724,19.61,1040.16,668.52,668.51,-0.00,0.01,0.97,1.89,0.25,-7.05,8.56,-85.25,-30.64,21.00
19756,19.61,1040.16,668.53,668.51,-0.10,-0.00,1.05,2.23,6.42,-2.70,8.51,-84.93,-30.73,20.51
19790,19.61,1040.16,668.53,668.51,0.01,0.01,0.95,3.65,0.28,0.68,8.52,-84.93,-30.70,21.00
19821,19.61,1040.16,668.53,668.52,-0.03,0.01,0.96,3.39,-4.13,-0.41,8.51,-85.01,-30.72,21.00
19852,19.61,1040.16,668.49,668.51,0.01,0.02,0.97,1.91,0.72,-5.69,8.47,-84.99,-30.89,19.53
19884,19.61,1040.16,668.49,668.51,0.02,0.00,0.99,2.82,2.34,-2.97,8.44,-84.94,-30.99,21.00
19916,19.61,1040.16,668.49,668.50,-0.02,0.02,0.99,5.43,1.96,2.10,8.51,-84.85,-30.92,21.00
19949,19.61,1040.14,668.65,668.53,-0.00,0.01,0.97,4.42,1.96,0.57,8.54,-84.78,-30.90,20.51
19980,19.61,1040.14,668.65,668.56,-0.02,-0.01,0.99,3.36,-10.21,-1.86,8.50,-85.07,-30.96,21.00
20012,19.61,1040.14,668.65,668.58,0.02,0.01,0.96,0.96,0.02,-9.13,8.43,-85.09,-31.25,20.02
20044,19.61,1040.15,668.61,668.58,-0.03,-0.01,0.97,3.45,-2.58,-2.21,8.40,-85.12,-31.32,21.00
20075,19.61,1040.15,668.61,668.59,-0.00,-0.00,0.97,4.65,1.24,1.97,8.43,-85.07,-31.26,20.02
20107,19.61,1040.15,668.61,668.59,-0.03,-0.00,0.97,3.39,9.59,-2.20,8.41,-84.74,-31.33,20.02
20141,19.62,1040.13,668.72,668.62,0.00,0.00,0.96,3.45,-6.32,-0.49,8.40,-84.96,-31.34,21.00
20173,19.62,1040.13,668.72,668.64,-0.00,0.01,0.96,2.52,5.18,-5.57,8.37,-84.78,-31.52,20.02
20205,19.62,1040.13,668.72,668.66,-0.01,-0.01,0.96,4.20,2.45,0.87,8.38,-84.69,-31.49,20.51
20236,19.61,1040.17,668.40,668.60,-0.04,0.02,0.96,4.79,0.92,2.35,8.42,-84.61,-31.42,20.51
20268,19.61,1040.17,668.40,668.56,-0.01,0.01,0.97,3.05,-3.14,-2.68,8.41,-84.70,-31.51,19.53
20300,19.61,1040.17,668.40,668.53,0.01,0.00,0.98,1.91,-0.65,-5.29,8.36,-84.74,-31.68,20.51
20333,19.61,1040.16,668.54,668.53,-0.02,0.01,0.97,3.55,-9.38,0.77,8.37,-85.02,-31.65,20.51
20364,19.61,1040.16,668.54,668.53,-0.00,0.01,0.97,3.14,7.88,-4.16,8.35,-84.77,-31.78,20.51
20396,19.61,1040.16,668.54,668.54,0.03,0.01,0.97,4.97,25.07,-1.34,8.39,-84.02,-31.82,21.00
20428,19.61,1040.16,668.50,668.53,0.11,0.11,0.92,13.55,10.04,12.49,8.84,-83.85,-31.42,21.48
20459,19.61,1040.16,668.50,668.52,-0.06,-0.01,0.98,23.52,-9.14,12.29,9.43,-84.08,-31.03,19.53
20493,19.61,1040.16,668.50,668.52,-0.03,0.02,0.96,9.11,-6.04,-8.41,9.60,-84.26,-31.31,20.51
20525,19.62,1040.15,668.58,668.53,-0.05,0.00,0.91,1.94,0.19,-18.82,9.52,-84.20,-31.91,20.51
20557,19.62,1040.15,668.58,668.54,0.03,-0.01,1.02,21.17,-6.36,-9.84,10.03,-84.45,-32.22,20.02
20589,19.62,1040.15,668.58,668.55,-0.05,0.01,0.95,39.43,-3.02,-8.16,11.12,-84.49,-32.49,20.51
20620,19.62,1040.16,668.49,668.54,-0.03,0.02,0.90,34.74,-10.13,-7.95,12.03,-84.76,-32.73,20.51
20654,19.62,1040.16,668.49,668.53,-0.12,0.05,0.94,21.39,-37.89,-10.73,12.61,-85.88,-33.10,20.02
20686,19.62,1040.16,668.49,668.52,0.13,-0.15,1.16,3.66,-51.22,-2.09,12.38,-87.59,-33.16,20.02
20717,19.61,1040.17,668.43,668.50,0.09,0.03,0.98,-11.04,13.03,28.54,11.88,-87.24,-32.28,21.48
20748,19.61,1040.17,668.43,668.49,-0.04,0.01,1.03,2.33,15.53,23.50,11.77,-86.67,-31.55,20.02
20780,19.61,1040.17,668.43,668.48,0.04,0.04,0.98,4.13,1.59,-5.65,11.76,-86.63,-31.73,21.00
20812,19.61,1040.16,668.49,668.48,0.05,0.10,0.93,-2.64,2.17,-25.98,11.61,-86.58,-32.56,21.00
20845,19.61,1040.16,668.49,668.48,-0.03,-0.02,0.95,-0.28,-6.19,-42.33,11.38,-86.70,-33.96,20.51
20876,19.61,1040.16,668.49,668.48,-0.03,0.15,0.92,2.16,-2.93,3.27,11.45,-86.71,-33.86,21.00
20908,19.61,1040.16,668.52,668.49,0.04,0.03,1.02,-11.38,-7.06,35.33,10.95,-86.93,-32.73,20.51
20940,19.61,1040.16,668.52,668.50,-0.01,0.16,1.07,6.67,7.32,12.51,11.16,-86.65,-32.33,21.00
20971,19.61,1040.16,668.52,668.50,-0.06,-0.01,1.02,6.78,-5.60,12.87,11.18,-86.73,-31.92,20.51
21005,19.61,1040.15,668.56,668.51,0.02,0.01,0.97,-4.25,-17.87,7.27,10.88,-87.29,-31.68,20.51
21037,19.61,1040.15,668.56,668.52,0.24,0.07,0.81,-7.88,35.68,-1.32,10.56,-86.44,-31.72,21.00
21069,19.61,1040.15,668.56,668.53,0.14,-0.18,0.55,-29.24,26.31,-90.06,9.13,-85.85,-34.60,20.51
21101,19.61,1040.17,668.45,668.51,-0.01,0.27,0.88,-7.38,-7.86,-27.48,9.11,-86.07,-35.48,21.00
21132,19.61,1040.17,668.45,668.50,-0.25,0.09,1.16,18.10,12.71,20.57,9.61,-85.41,-34.84,21.00
21164,19.61,1040.17,668.45,668.49,-0.01,-0.01,0.96,9.92,1.04,18.20,9.76,-85.36,-34.26,19.53
21198,19.62,1040.15,668.58,668.51,0.03,-0.02,0.98,8.29,2.77,3.16,9.87,-85.29,-34.15,21.00
21229,19.62,1040.15,668.58,668.52,-0.01,-0.01,1.01,5.89,22.23,-9.60,9.89,-84.60,-34.45,20.02
21260,19.62,1040.15,668.58,668.53,-0.07,-0.01,1.01,1.25,25.76,-6.65,9.77,-83.74,-34.65,20.51
21292,19.62,1040.16,668.54,668.54,-0.11,0.00,0.93,-8.80,-14.16,7.76,9.35,-84.07,-34.41,20.51
21324,19.62,1040.16,668.54,668.54,-0.02,-0.02,0.91,-10.26,-16.15,11.47,8.87,-84.57,-34.04,20.51
21357,19.62,1040.16,668.54,668.54,-0.02,0.03,1.05,-16.13,12.31,-5.05,8.25,-84.15,-34.21,21.00
21388,19.62,1040.16,668.43,668.52,-0.22,0.01,1.17,-15.59,-14.50,9.03,7.66,-84.39,-33.93,20.51
21420,19.61,1040.17,668.43,668.50,-0.16,0.07,0.95,-12.74,-50.82,11.62,7.23,-85.81,-33.55,19.53
21452,19.61,1040.17,668.43,668.48,-0.15,0.07,0.94,-12.58,-35.95,14.74,6.83,-86.73,-33.08,20.51
21483,19.61,1040.17,668.43,668.47,-0.09,0.02,0.94,-11.61,-24.50,25.10,6.40,-87.36,-32.28,20.02
21515,19.61,1040.16,668.50,668.48,-0.03,-0.03,0.96,-14.45,-17.28,13.73,5.84,-87.79,-31.85,21.00
21549,19.61,1040.16,668.50,668.48,0.01,-0.02,1.00,-14.54,-12.30,0.06,5.26,-88.15,-31.85,20.02
21581,19.61,1040.16,668.50,668.49,0.07,-0.00,0.94,-11.15,1.42,-8.29,4.85,-88.12,-32.12,20.51
21613,19.61,1040.17,668.47,668.48,0.05,0.02,0.92,-5.04,11.41,0.64,4.67,-87.75,-32.10,20.51
21644,19.61,1040.17,668.47,668.48,0.04,0.04,0.94,3.87,7.07,16.05,4.78,-87.53,-31.60,20.51
21676,19.61,1040.17,668.47,668.48,0.00,0.02,0.96,7.72,5.33,16.74,5.00,-87.30,-31.06,20.51
21710,19.61,1040.16,668.48,668.48,0.02,0.09,0.91,13.69,9.67,26.35,5.52,-86.95,-30.17,21.00
21741,19.61,1040.16,668.48,668.48,0.04,0.08,0.96,22.88,10.46,45.38,6.24,-86.64,-28.76,21.00
21772,19.61,1040.16,668.48,668.48,0.05,0.06,0.98,27.75,-1.90,54.25,7.07,-86.71,-27.08,21.00
21804,19.61,1040.14,668.68,668.52,0.03,0.03,1.00,26.49,-3.92,40.98,7.84,-86.83,-25.77,20.51
21836,19.61,1040.14,668.68,668.55,0.03,0.02,1.06,17.43,-4.83,10.80,8.30,-86.97,-25.42,20.51
21867,19.61,1040.14,668.68,668.57,0.03,0.10,1.06,13.60,-6.83,-6.39,8.72,-87.18,-25.63,21.00
21901,19.61,1040.14,668.66,668.59,0.02,0.19,1.06,1.58,-8.38,-34.04,8.85,-87.43,-26.75,21.00
21933,19.61,1040.14,668.66,668.61,0.03,0.17,1.08,12.82,-9.23,-10.84,9.30,-87.70,-27.10,20.51
21965,19.61,1040.14,668.66,668.62,0.05,0.12,1.10,16.93,-6.64,2.57,9.82,-87.90,-27.01,20.51
21997,19.61,1040.15,668.58,668.61,0.02,0.12,1.12,15.03,0.68,-2.07,10.26,-87.84,-27.08,20.02
22028,19.61,1040.15,668.58,668.60,0.06,0.09,1.14,13.42,-0.21,0.78,10.60,-87.84,-27.06,20.02
22062,19.61,1040.15,668.58,668.60,0.11,0.18,1.10,17.95,1.46,-11.17,11.22,-87.84,-27.44,20.02
22094,19.61,1040.18,668.37,668.55,0.06,0.13,1.18,22.47,5.01,3.90,11.88,-87.68,-27.31,21.00
22125,19.61,1040.18,668.37,668.52,0.09,0.14,1.12,17.63,-2.59,-2.24,12.37,-87.78,-27.38,20.51
22156,19.61,1040.18,668.37,668.49,0.04,0.16,1.10,8.10,-3.12,-14.41,12.58,-87.86,-27.83,21.00
22188,19.61,1040.18,668.34,668.46,0.01,0.20,1.07,2.06,-0.73,-12.65,12.65,-87.82,-28.23,21.00
22220,19.61,1040.18,668.34,668.43,0.03,0.17,1.04,2.35,-8.03,0.46,12.71,-88.05,-28.22,19.53
22253,19.61,1040.18,668.34,668.42,0.09,0.16,1.02,-1.53,-7.84,4.00,12.63,-88.33,-28.09,21.00
22284,19.61,1040.20,668.20,668.37,0.11,0.16,1.02,-2.92,-2.35,7.26,12.51,-88.45,-27.86,21.00
22316,19.61,1040.20,668.20,668.34,0.06,0.16,1.09,-5.96,-0.88,3.82,12.29,-88.47,-27.74,21.00
22348,19.61,1040.20,668.20,668.31,0.04,0.12,1.04,0.91,3.30,9.06,12.25,-88.34,-27.45,20.51
22379,19.61,1040.20,668.16,668.28,0.02,0.09,1.06,4.90,9.32,11.53,12.31,-88.00,-27.08,20.02
22413,19.61,1040.20,668.16,668.26,0.05,0.11,1.06,0.01,-0.68,0.57,12.22,-88.01,-27.06,20.02
22445,19.61,1040.20,668.16,668.24,0.09,0.10,1.02,-8.26,-3.41,-10.00,11.88,-88.14,-27.38,20.51
22477,19.61,1040.20,668.17,668.22,0.03,0.14,1.11,-9.30,-0.16,-14.56,11.54,-88.11,-27.85,20.51
22509,19.61,1040.20,668.17,668.21,0.02,0.17,1.13,-8.35,0.69,-12.41,11.27,-88.04,-28.24,21.00
22540,19.61,1040.20,668.17,668.20,0.06,0.15,1.07,-6.61,-0.16,-10.52,11.05,-88.04,-28.57,20.02
22572,19.61,1040.19,668.23,668.21,0.08,0.15,1.03,-3.13,2.62,-2.49,10.94,-87.98,-28.65,20.02
22602,19.61,1040.19,668.23,668.21,0.14,0.10,1.00,-2.89,3.04,-3.69,10.80,-87.99,-28.76,21.00
22633,19.61,1040.19,668.23,668.22,0.05,0.14,1.02,-3.38,0.62,-3.19,10.68,-87.96,-28.86,21.48
22665,19.61,1040.18,668.37,668.25,-0.02,0.13,1.08,-2.86,-3.40,-3.89,10.57,-87.98,-28.98,20.51
22697,19.61,1040.18,668.37,668.27,0.00,0.11,1.05,-1.93,-0.91,6.97,10.46,-87.95,-28.76,21.00
22728,19.61,1040.18,668.37,668.29,0.02,0.06,1.01,2.71,0.33,12.98,10.45,-87.90,-28.36,20.02
22767,19.61,1040.20,668.21,668.28,0.05,0.11,1.02,5.86,5.04,13.00,10.64,-87.70,-27.85,20.02
22798,19.61,1040.20,668.21,668.26,0.08,0.13,1.02,-5.04,7.06,0.22,10.47,-87.52,-27.84,21.00
22830,19.61,1040.20,668.21,668.25,0.03,0.11,1.06,-1.61,8.07,-4.67,10.37,-87.25,-27.99,21.00
22862,19.61,1040.18,668.37,668.28,0.04,0.09,1.06,2.73,5.87,-7.75,10.40,-87.06,-28.24,20.51
22893,19.61,1040.18,668.37,668.29,0.04,0.10,1.05,4.15,5.52,-17.39,10.48,-86.89,-28.78,20.51
22924,19.61,1040.18,668.37,668.31,0.01,0.12,1.06,8.61,4.26,-15.40,10.70,-86.73,-29.26,21.00
22958,19.61,1040.16,668.52,668.35,0.01,0.11,1.01,9.57,2.17,-15.63,10.98,-86.63,-29.79,21.00
22990,19.61,1040.16,668.52,668.38,-0.01,0.12,1.03,9.91,7.73,-7.92,11.25,-86.33,-30.04,21.48
23021,19.61,1040.16,668.52,668.41,0.01,0.12,1.04,8.38,2.19,0.00,11.46,-86.25,-30.04,20.51
23052,19.61,1040.17,668.40,668.41,0.04,0.11,1.01,7.71,2.78,4.10,11.64,-86.18,-29.92,21.00
23084,19.61,1040.17,668.40,668.41,0.07,0.11,0.99,8.15,0.16,4.14,11.83,-86.24,-29.78,20.51
23118,19.61,1040.17,668.40,668.41,0.05,0.13,1.00,9.22,-0.76,5.90,12.10,-86.28,-29.58,21.00
23149,19.61,1040.17,668.44,668.41,-0.01,0.13,1.03,11.03,-1.16,9.29,12.38,-86.28,-29.30,20.02
23180,19.61,1040.17,668.44,668.42,-0.03,0.16,0.99,8.41,7.32,12.72,12.62,-85.99,-28.90,20.51
23212,19.61,1040.17,668.44,668.42,-0.07,0.15,1.02,2.45,4.17,14.52,12.66,-85.75,-28.44,21.00
23244,19.61,1040.21,668.06,668.35,0.02,0.12,1.02,-6.35,1.07,-0.94,12.39,-85.72,-28.47,21.00
23275,19.61,1040.21,668.06,668.29,0.16,0.06,0.99,13.40,-6.07,0.42,12.68,-86.08,-28.45,21.00
23309,19.61,1040.21,668.06,668.25,-0.03,0.13,1.00,16.61,-12.87,9.94,13.15,-86.44,-28.13,21.00
23341,19.61,1040.18,668.38,668.27,0.01,0.11,1.00,6.26,-17.22,3.01,13.26,-86.95,-28.03,21.00
23373,19.61,1040.18,668.38,668.29,0.04,0.16,1.00,1.89,-20.99,-17.72,13.29,-87.61,-28.60,20.51
23405,19.61,1040.18,668.38,668.31,-0.04,0.17,1.01,5.23,-2.56,-4.79,13.42,-87.58,-28.75,20.51
23436,19.61,1040.16,668.48,668.34,-0.05,0.07,1.07,4.94,4.05,-8.61,13.42,-87.35,-29.02,20.51
23470,19.61,1040.16,668.48,668.37,-0.04,0.13,1.03,-10.32,8.25,-21.74,13.00,-86.98,-29.76,21.00
23502,19.61,1040.16,668.48,668.39,0.06,0.12,1.03,0.55,12.10,-0.76,12.93,-86.63,-29.78,21.48
23533,19.61,1040.17,668.46,668.41,0.02,0.13,0.99,1.58,12.57,-1.40,12.91,-86.23,-29.82,21.00
23564,19.61,1040.17,668.46,668.42,0.12,0.07,1.04,-1.51,10.71,-5.20,12.74,-86.01,-29.98,20.51
23596,19.61,1040.17,668.46,668.43,-0.02,0.18,1.03,-2.75,5.26,-2.06,12.65,-85.79,-30.05,21.00
23628,19.61,1040.15,668.59,668.46,0.06,0.13,0.99,-2.05,4.66,-9.87,12.53,-85.70,-30.37,21.00
23661,19.61,1040.15,668.59,668.49,0.03,0.09,1.01,-0.32,7.41,-4.67,12.41,-85.47,-30.52,20.51
23692,19.61,1040.15,668.59,668.51,0.01,0.11,1.02,-4.05,1.06,-4.29,12.20,-85.43,-30.65,21.00
23724,19.61,1040.17,668.43,668.49,-0.05,0.15,0.97,6.10,3.30,1.53,12.37,-85.26,-30.60,21.00
23756,19.61,1040.17,668.43,668.48,0.01,0.13,1.00,9.63,13.70,5.62,12.62,-84.84,-30.42,20.02
23787,19.61,1040.17,668.43,668.47,0.06,0.14,1.01,0.79,-1.86,10.08,12.60,-84.96,-30.10,20.51
23821,19.61,1040.18,668.34,668.44,0.02,0.15,1.03,9.58,-11.11,27.76,12.87,-85.34,-29.19,20.51
23853,19.61,1040.18,668.34,668.42,0.03,0.08,1.06,14.53,-11.51,7.68,13.20,-85.71,-28.94,20.51
23885,19.61,1040.18,668.34,668.41,0.02,0.14,1.01,9.19,-24.53,-8.07,13.44,-86.48,-29.20,20.51
23917,19.61,1040.14,668.63,668.45,-0.01,0.08,0.97,1.71,-21.78,1.85,13.36,-87.12,-29.14,21.00
23948,19.61,1040.14,668.63,668.49,0.04,0.18,1.02,1.00,-10.67,-6.87,13.37,-87.44,-29.35,20.51
23982,19.61,1040.14,668.63,668.52,-0.02,0.12,0.98,7.34,2.60,0.68,13.53,-87.27,-29.33,20.51
24014,19.61,1040.17,668.44,668.50,-0.08,0.10,1.06,17.13,19.56,-21.49,13.95,-86.53,-30.02,20.51
24045,19.61,1040.17,668.44,668.49,0.10,0.13,1.00,21.66,18.02,-36.94,14.53,-86.06,-31.16,21.00
24076,19.61,1040.17,668.44,668.48,0.07,0.29,1.05,28.33,10.98,0.31,15.46,-85.78,-31.15,21.00
24108,19.61,1040.16,668.53,668.49,-0.03,0.06,1.00,18.53,-0.65,4.17,15.84,-85.75,-31.02,21.48
24140,19.61,1040.16,668.53,668.50,-0.01,0.10,0.99,16.29,0.08,-11.48,16.20,-85.71,-31.39,20.02
24173,19.61,1040.16,668.53,668.50,0.05,0.16,0.97,9.49,-5.92,6.78,16.41,-85.94,-31.16,20.51
24204,19.61,1040.15,668.61,668.53,0.01,0.10,1.02,10.18,-4.47,17.07,16.56,-86.06,-30.63,21.00
24236,19.61,1040.15,668.61,668.54,0.01,0.02,0.92,9.20,18.26,4.89,16.58,-85.47,-30.48,20.51
24268,19.61,1040.15,668.61,668.56,0.13,0.11,1.05,-2.87,17.21,-7.92,16.32,-85.06,-30.73,19.53
24299,19.61,1040.14,668.69,668.58,-0.01,0.14,0.94,-6.66,4.49,5.62,16.01,-84.90,-30.55,21.48
24333,19.61,1040.14,668.69,668.60,0.00,0.09,1.03,-6.77,9.58,-22.27,15.62,-84.59,-31.29,20.51
24365,19.61,1040.14,668.69,668.62,-0.07,0.11,0.89,0.29,31.67,3.65,15.51,-83.52,-31.17,20.51
24397,19.61,1040.16,668.50,668.60,-0.05,0.13,0.87,-8.77,29.30,-28.56,15.14,-82.56,-32.08,21.00
24429,19.61,1040.16,668.50,668.58,0.01,0.22,0.99,-17.91,4.08,-42.04,14.58,-82.49,-33.43,20.51
24460,19.61,1040.16,668.50,668.56,0.03,0.13,0.95,-9.22,-18.19,-8.93,14.21,-83.13,-33.70,20.51
24492,19.61,1040.13,668.76,668.60,-0.04,0.10,0.96,-1.96,-22.88,-0.88,14.03,-83.83,-33.73,21.00
24526,19.61,1040.13,668.76,668.63,0.03,0.13,0.99,24.70,4.95,4.46,14.77,-83.72,-33.58,21.00
24557,19.61,1040.13,668.76,668.66,0.06,0.14,1.03,37.25,3.38,-4.93,15.81,-83.70,-33.73,21.00
24588,19.61,1040.15,668.62,668.65,-0.01,0.08,0.91,28.44,1.70,5.33,16.51,-83.65,-33.57,20.51
24620,19.61,1040.15,668.62,668.64,0.00,0.03,0.88,11.19,3.23,10.20,16.62,-83.58,-33.24,20.51
24652,19.61,1040.15,668.62,668.64,0.38,0.11,1.06,10.36,-0.87,-18.03,16.77,-84.02,-33.82,21.00
24685,19.61,1040.15,668.62,668.64,-0.24,-0.09,0.97,13.54,29.78,-12.09,16.81,-82.79,-34.22,21.00
24716,19.61,1040.15,668.62,668.63,-0.17,0.12,1.02,10.94,33.87,-9.14,16.98,-81.61,-34.50,20.51
24748,19.61,1040.15,668.62,668.63,0.08,0.04,0.87,2.74,-1.41,-41.74,16.83,-81.83,-35.84,21.48
24780,19.61,1040.14,668.67,668.64,0.05,0.09,0.90,7.13,11.88,22.25,16.87,-81.58,-35.12,21.48
24811,19.61,1040.14,668.67,668.64,-0.02,0.08,1.01,-4.19,-2.88,8.58,16.54,-81.72,-34.85,21.00
24843,19.61,1040.14,668.67,668.65,0.02,0.07,0.89,-15.82,-6.39,8.11,15.86,-81.99,-34.60,20.51
24877,19.61,1040.14,668.67,668.65,-0.01,0.12,0.93,-15.97,3.61,3.91,15.20,-81.92,-34.47,21.00
24909,19.61,1040.14,668.67,668.66,0.02,0.11,0.94,-10.60,9.71,-3.29,14.75,-81.69,-34.57,20.02
24941,19.61,1040.14,668.67,668.66,-0.02,0.08,0.93,-4.72,5.84,6.57,14.45,-81.55,-34.36,21.48
24972,19.61,1040.15,668.60,668.65,0.01,0.03,1.00,-16.49,-13.34,7.70,13.75,-82.03,-34.12,21.00
25004,19.61,1040.15,668.60,668.64,-0.10,0.04,0.92,-16.42,-20.76,-23.89,13.05,-82.61,-34.89,20.51
25038,19.61,1040.15,668.60,668.63,0.04,0.07,0.83,-9.06,12.45,-36.45,12.64,-82.30,-36.13,21.97
25069,19.61,1040.13,668.76,668.65,0.02,0.21,0.99,-7.68,-2.12,-7.19,12.43,-82.43,-36.35,20.51
25100,19.61,1040.13,668.76,668.68,-0.02,0.19,0.88,-5.30,-1.93,18.74,12.32,-82.51,-35.77,21.48
25132,19.61,1040.13,668.76,668.69,-0.11,-0.03,1.00,21.65,25.33,23.94,12.77,-81.64,-35.00,21.00
25164,19.61,1040.13,668.76,668.71,0.00,-0.01,1.08,0.85,-2.70,-11.36,12.58,-81.79,-35.37,20.51
25195,19.61,1040.16,668.53,668.67,0.10,0.15,0.95,-13.90,-47.77,-10.81,12.12,-83.46,-35.71,20.02
25229,19.61,1040.16,668.53,668.64,-0.03,0.14,0.94,1.69,-23.22,9.50,12.15,-84.19,-35.40,20.51
25261,19.61,1040.16,668.55,668.63,0.02,0.07,0.98,4.99,-26.88,8.19,12.19,-85.08,-35.14,21.00
25293,19.61,1040.16,668.51,668.60,0.01,0.07,0.97,5.37,-27.45,7.76,12.25,-85.94,-34.89,20.51
25325,19.61,1040.16,668.51,668.58,-0.03,0.05,0.97,6.79,-10.41,9.12,12.33,-86.21,-34.60,20.51
25356,19.61,1040.16,668.51,668.57,0.01,0.01,0.97,-7.35,-11.86,-1.19,11.92,-86.55,-34.63,20.51
25390,19.61,1040.15,668.55,668.57,-0.04,0.08,0.98,-17.12,-6.61,-21.25,11.25,-86.68,-35.35,21.00
25422,19.61,1040.15,668.55,668.56,0.08,0.12,1.01,3.55,10.52,-8.88,11.33,-86.40,-35.64,21.48
25453,19.61,1040.15,668.55,668.56,0.04,0.11,1.00,11.52,18.45,2.63,11.62,-85.86,-35.56,21.00
25484,19.61,1040.18,668.37,668.52,-0.02,0.09,1.03,8.93,3.90,8.48,11.80,-85.69,-35.29,21.48
25516,19.61,1040.18,668.37,668.49,-0.00,0.12,0.94,9.39,4.49,11.29,12.05,-85.53,-34.93,21.48
25550,19.61,1040.18,668.37,668.47,0.02,0.02,0.99,8.62,10.40,16.08,12.18,-85.19,-34.39,21.00
25581,19.61,1040.16,668.50,668.47,0.03,0.03,0.97,-4.34,1.58,-7.95,11.89,-85.17,-34.63,20.51
25612,19.61,1040.16,668.50,668.48,-0.02,0.13,0.94,-1.09,13.41,-4.52,11.83,-84.73,-34.77,20.02
25644,19.61,1040.16,668.50,668.48,-0.45,0.09,1.32,5.83,3.49,1.68,11.90,-84.25,-34.72,21.48
25676,19.61,1040.17,668.40,668.47,0.02,-0.01,0.85,-6.49,32.83,-9.22,11.49,-83.26,-35.01,20.51
25707,19.61,1040.17,668.40,668.45,-0.01,0.09,0.96,-15.99,22.59,-20.67,10.91,-82.56,-35.68,21.00
25741,19.61,1040.17,668.40,668.44,0.08,0.15,0.99,-12.52,9.82,-10.71,10.51,-82.38,-36.03,21.97
25773,19.61,1040.16,668.48,668.45,-0.08,0.15,0.97,-8.16,-8.56,11.88,10.27,-82.61,-35.65,21.00
25805,19.61,1040.16,668.48,668.45,0.00,-0.03,0.99,-1.50,-4.56,4.97,10.03,-82.80,-35.49,21.00
25837,19.61,1040.16,668.48,668.46,0.03,0.09,1.00,-1.93,-16.79,-13.32,9.92,-83.39,-35.92,21.00
25868,19.61,1040.18,668.38,668.44,-0.00,0.11,0.97,10.70,-19.80,2.97,10.22,-84.01,-35.82,21.00
25902,19.61,1040.18,668.38,668.43,-0.00,0.05,0.94,9.26,-14.21,-9.48,10.43,-84.50,-36.15,21.48
25934,19.61,1040.18,668.38,668.42,0.02,0.10,0.94,8.82,-12.71,-6.67,10.67,-84.93,-36.36,21.97
25965,19.61,1040.15,668.55,668.44,-0.00,0.04,0.91,9.17,-5.67,-5.83,10.84,-85.09,-36.54,21.48
25996,19.61,1040.15,668.55,668.47,-0.05,0.01,0.89,2.21,-1.43,-14.52,10.76,-85.07,-36.99,21.00
26028,19.61,1040.15,668.55,668.48,-0.02,0.16,0.94,-10.83,-3.72,-9.28,10.45,-85.15,-37.29,20.02
26060,19.61,1040.15,668.61,668.51,0.03,0.12,0.95,-6.28,0.36,7.18,10.23,-85.17,-37.06,20.51
26093,19.61,1040.15,668.61,668.53,-0.01,0.02,0.98,-4.66,-1.70,10.14,9.94,-85.21,-36.72,21.48
26124,19.61,1040.15,668.61,668.55,0.02,0.00,1.03,-2.90,-1.03,-2.70,9.71,-85.25,-36.81,21.00
26156,19.61,1040.15,668.55,668.55,0.01,0.11,1.00,-0.68,-2.59,-1.05,9.66,-85.33,-36.84,20.02
26188,19.61,1040.15,668.55,668.55,0.01,0.06,0.97,1.65,-6.82,4.28,9.64,-85.54,-36.70,21.48
26219,19.61,1040.15,668.55,668.55,0.00,-0.01,0.99,0.68,2.02,-5.42,9.51,-85.47,-36.88,21.48
26253,19.61,1040.15,668.63,668.57,-0.01,0.11,0.95,-3.27,3.38,-13.16,9.39,-85.33,-37.31,20.51
26285,19.61,1040.15,668.63,668.58,-0.00,0.09,1.01,4.23,8.78,-4.85,9.48,-85.04,-37.47,21.00
26317,19.61,1040.15,668.63,668.59,-0.02,0.01,0.97,0.12,14.05,-11.16,9.36,-84.57,-37.82,21.00
26349,19.61,1040.14,668.66,668.60,-0.01,0.06,0.94,2.06,7.03,-17.55,9.36,-84.34,-38.39,21.00
26380,19.61,1040.14,668.66,668.61,0.01,0.19,0.98,5.11,-4.77,0.13,9.60,-84.50,-38.38,21.48
26412,19.61,1040.14,668.66,668.62,-0.02,0.02,1.00,6.50,-15.41,21.51,9.68,-84.97,-37.69,21.00
26446,19.61,1040.15,668.56,668.61,-0.01,-0.08,0.94,1.69,-19.78,1.19,9.50,-85.62,-37.65,21.48
26477,19.61,1040.15,668.56,668.60,0.01,0.18,0.95,-2.83,-23.16,-7.60,9.49,-86.31,-37.89,21.48
26508,19.61,1040.15,668.56,668.59,-0.02,0.05,0.98,15.29,0.48,15.62,9.87,-86.24,-37.40,21.48
26540,19.61,1040.16,668.53,668.58,-0.03,-0.04,0.93,0.90,5.10,-1.45,9.69,-86.02,-37.45,21.00
26572,19.61,1040.16,668.53,668.57,0.04,0.03,1.08,-2.31,15.70,-11.52,9.51,-85.54,-37.82,21.00
26605,19.61,1040.16,668.53,668.56,-0.02,0.07,0.96,0.74,22.72,-11.29,9.47,-84.77,-38.19,21.00
26636,19.61,1040.14,668.69,668.59,0.03,0.15,0.95,-15.07,-0.74,9.90,9.05,-84.82,-37.88,21.00
26758,19.61,1040.15,668.57,668.58,-0.04,0.13,0.93,16.10,19.82,15.59,11.00,-82.40,-35.98,21.00
26790,19.61,1040.15,668.57,668.58,-0.10,-0.06,0.98,-1.33,15.59,11.91,10.72,-81.84,-35.60,21.00
26821,19.61,1040.13,668.74,668.61,0.03,0.07,0.96,-11.30,3.65,-11.81,10.29,-81.82,-35.97,21.00
26852,19.61,1040.13,668.74,668.64,-0.03,0.12,0.94,0.94,-5.81,3.65,10.31,-82.02,-35.85,21.48
26886,19.61,1040.13,668.74,668.66,-0.03,-0.01,0.95,4.03,-14.62,20.02,10.27,-82.53,-35.17,21.48
26918,19.61,1040.14,668.66,668.66,0.13,-0.07,1.05,10.94,-9.75,-17.48,10.38,-83.02,-35.73,21.48
26949,19.61,1040.14,668.66,668.66,-0.07,0.14,0.94,19.19,0.95,-17.48,10.97,-82.94,-36.27,21.48
26980,19.61,1040.14,668.66,668.66,-0.00,0.20,0.93,16.68,-1.35,4.98,11.55,-83.02,-36.12,21.48
27012,19.61,1040.15,668.59,668.65,0.02,0.14,0.95,11.22,-1.92,22.61,11.88,-83.13,-35.40,21.48
27046,19.61,1040.15,668.59,668.64,-0.03,0.02,0.96,20.79,-6.90,32.25,12.40,-83.35,-34.30,21.00
27077,19.61,1040.15,668.59,668.63,-0.02,-0.03,0.95,12.85,-14.62,12.95,12.56,-83.81,-33.90,20.51
27108,19.61,1040.17,668.44,668.59,-0.02,0.02,0.97,-5.96,-12.61,-12.56,12.19,-84.19,-34.29,21.48
27140,19.61,1040.17,668.44,668.56,0.01,0.08,0.99,-11.47,-8.91,-27.43,11.72,-84.49,-35.17,21.48
27172,19.61,1040.17,668.44,668.53,0.02,0.13,0.98,0.24,1.13,-14.36,11.69,-84.48,-35.63,20.51
27205,19.61,1040.16,668.48,668.52,0.02,0.14,1.01,7.77,7.52,1.79,11.91,-84.26,-35.57,21.00
27236,19.61,1040.16,668.48,668.51,0.02,0.10,1.01,10.07,5.03,8.64,12.14,-84.14,-35.30,21.97
27268,19.61,1040.16,668.48,668.51,-0.00,0.07,0.97,9.10,2.14,12.63,12.31,-84.08,-34.89,21.48
27300,19.61,1040.13,668.77,668.56,-0.03,0.04,1.00,-0.02,-2.59,7.33,12.16,-84.14,-34.66,21.00
27331,19.61,1040.13,668.77,668.60,0.01,0.04,1.02,-1.18,-6.71,-5.25,11.98,-84.37,-34.82,21.00
27362,19.61,1040.13,668.77,668.64,0.03,0.07,0.99,2.24,-7.90,-7.78,11.93,-84.65,-35.06,21.48
27396,19.61,1040.17,668.45,668.60,-0.00,0.08,1.00,0.91,-4.97,-6.36,11.87,-84.81,-35.28,21.00
27428,19.61,1040.17,668.45,668.57,0.01,0.10,0.98,-1.50,-2.33,-4.06,11.75,-84.90,-35.41,21.48
27459,19.61,1040.17,668.45,668.55,0.00,0.10,1.00,4.97,-1.86,2.55,11.84,-84.95,-35.33,21.48
27490,19.61,1040.15,668.57,668.55,0.01,0.08,0.98,7.81,-0.97,8.46,11.98,-84.99,-35.07,20.02
27522,19.61,1040.15,668.57,668.56,-0.01,0.07,0.96,3.58,1.20,3.82,11.98,-84.94,-34.95,21.00
27556,19.61,1040.15,668.57,668.56,-0.02,0.05,1.00,3.65,-3.43,-5.77,11.96,-85.03,-35.14,20.02
27587,19.61,1040.16,668.52,668.55,0.02,0.08,1.04,1.69,-8.18,-6.27,11.92,-85.29,-35.34,20.51
27618,19.61,1040.16,668.52,668.54,0.01,0.08,0.99,-2.49,-4.70,-3.39,11.75,-85.44,-35.44,20.51
27650,19.61,1040.16,668.52,668.54,0.01,0.08,0.98,1.55,0.31,-0.56,11.70,-85.43,-35.46,21.00
27682,19.61,1040.16,668.52,668.53,0.02,0.09,1.02,3.10,-4.88,2.75,11.71,-85.59,-35.37,21.00
27714,19.61,1040.16,668.52,668.53,-0.00,0.08,1.02,-4.35,-10.85,12.80,11.48,-85.91,-34.96,21.00
27747,19.61,1040.16,668.52,668.53,0.00,0.03,1.03,-1.13,-7.12,13.38,11.30,-86.12,-34.52,21.48
27779,19.61,1040.16,668.52,668.53,0.04,0.02,1.03,3.25,-12.15,-3.31,11.24,-86.52,-34.63,20.51
27811,19.62,1040.16,668.52,668.53,-0.01,0.04,1.04,1.51,-13.81,-22.00,11.16,-86.91,-35.33,21.00
27842,19.62,1040.16,668.52,668.53,0.02,0.07,1.02,4.91,-7.81,-20.16,11.21,-87.13,-35.96,21.48
27873,19.62,1040.16,668.52,668.53,0.04,0.07,1.02,12.12,-1.25,-2.55,11.48,-87.16,-36.03,21.00
27907,19.61,1040.18,668.36,668.49,-0.01,0.04,1.05,13.72,-0.39,-1.08,11.80,-87.12,-36.07,21.00
27939,19.61,1040.18,668.36,668.47,0.02,0.03,1.04,7.37,-5.00,-19.52,11.87,-87.25,-36.70,21.48
27970,19.61,1040.18,668.36,668.45,0.00,0.06,1.03,3.42,-9.95,-27.92,11.85,-87.50,-37.56,21.00
28001,19.61,1040.14,668.68,668.49,0.02,0.08,1.03,5.11,-7.92,-14.20,11.91,-87.71,-38.00,21.00
28033,19.61,1040.14,668.68,668.53,0.03,0.07,1.02,7.37,-2.18,1.33,12.03,-87.76,-37.96,20.51
28065,19.61,1040.14,668.68,668.56,0.01,0.03,1.04,1.28,-0.44,-8.74,11.90,-87.73,-38.24,20.51
28098,19.61,1040.15,668.57,668.56,-0.01,0.05,1.05,-8.09,-4.74,-27.26,11.51,-87.81,-39.14,21.00
28129,19.61,1040.15,668.57,668.56,0.03,0.09,1.03,-7.93,-6.97,-14.49,11.18,-88.00,-39.59,21.97
28161,19.61,1040.15,668.57,668.56,0.04,0.07,1.02,-3.61,-4.67,9.07,10.97,-88.12,-39.30,20.02
28193,19.61,1040.18,668.32,668.51,0.00,0.04,1.03,-6.57,-1.26,3.74,10.64,-88.09,-39.18,21.48
28224,19.61,1040.18,668.32,668.47,-0.03,-0.03,0.96,34.10,-8.12,-7.71,11.50,-88.24,-39.42,20.51
28258,19.61,1040.18,668.32,668.44,0.06,0.13,0.92,21.32,21.32,-25.83,12.17,-87.55,-40.28,21.48
28290,19.61,1040.17,668.40,668.43,0.02,0.06,1.05,11.17,28.88,-22.09,12.39,-86.62,-40.98,21.97
28322,19.61,1040.17,668.40,668.43,-0.02,0.10,1.08,2.93,-2.67,-8.56,12.39,-86.64,-41.26,21.48
28354,19.61,1040.17,668.40,668.42,0.04,0.08,1.02,-0.37,-28.04,20.77,12.27,-87.53,-40.59,21.48
28385,19.61,1040.16,668.51,668.44,-0.01,0.05,1.02,-7.33,-21.57,24.10,11.90,-88.12,-39.85,20.02
28417,19.61,1040.16,668.51,668.45,0.07,-0.01,1.05,-22.77,8.23,0.10,10.99,-87.87,-39.84,20.51
28451,19.61,1040.16,668.51,668.46,0.07,-0.03,1.13,-27.68,12.20,-18.68,9.86,-87.47,-40.48,20.51
28482,19.61,1040.15,668.56,668.48,0.03,0.03,1.15,-4.22,6.01,-3.07,9.61,-87.27,-40.57,20.51
28513,19.61,1040.15,668.56,668.50,0.01,0.03,1.11,5.07,-7.26,35.09,9.66,-87.45,-39.49,20.51
28545,19.61,1040.15,668.56,668.51,0.00,-0.04,1.10,-0.02,-18.42,23.44,9.47,-87.97,-38.74,21.48
28577,19.61,1040.19,668.29,668.47,0.03,-0.02,1.06,-8.95,-23.37,-26.00,9.03,-88.67,-39.57,21.97
28610,19.61,1040.19,668.29,668.43,0.08,0.09,1.00,4.16,3.18,-11.11,9.13,-88.58,-39.93,21.48
28641,19.61,1040.19,668.29,668.40,-0.08,0.00,0.84,13.10,24.72,21.06,9.40,-87.65,-39.28,21.97
28673,19.61,1040.18,668.38,668.40,-0.04,-0.13,0.98,-7.41,-11.16,-6.03,8.87,-87.89,-39.47,21.48
28705,19.61,1040.18,668.38,668.39,0.09,0.03,1.11,-9.68,10.23,-32.12,8.48,-87.60,-40.50,21.97
28736,19.61,1040.18,668.38,668.39,0.06,0.09,1.03,-3.41,5.53,-1.39,8.34,-87.44,-40.55,20.51
28770,19.61,1040.18,668.35,668.38,-0.11,-0.02,1.20,3.34,0.36,18.34,8.31,-87.27,-39.94,20.51
28802,19.61,1040.18,668.35,668.38,0.17,0.12,1.09,15.02,-18.70,25.61,8.79,-87.98,-39.12,21.48
28834,19.61,1040.18,668.35,668.37,-0.00,0.05,0.99,-4.14,-8.19,14.40,8.60,-88.17,-38.66,20.51
28866,19.61,1040.17,668.47,668.39,0.00,0.12,0.93,-1.99,10.92,-16.24,8.56,-87.76,-39.18,21.00
28897,19.61,1040.17,668.47,668.41,0.03,-0.03,0.99,-10.54,12.19,2.20,8.09,-87.37,-39.11,20.02
28929,19.61,1040.17,668.47,668.42,-0.08,0.01,1.04,7.94,0.98,-7.28,8.23,-87.20,-39.35,21.97
28963,19.61,1040.17,668.42,668.42,0.08,0.09,1.13,13.54,-15.51,0.46,8.66,-87.75,-39.33,20.51
28994,19.61,1040.17,668.42,668.42,0.04,0.02,1.07,15.20,-23.98,11.85,9.02,-88.46,-38.96,20.51
29025,19.61,1040.17,668.42,668.42,0.04,-0.03,1.08,5.07,-16.07,-1.08,9.01,-88.91,-39.00,21.00
29057,19.61,1040.18,668.34,668.40,0.06,0.05,1.12,-3.41,-16.64,-5.54,8.82,-89.41,-39.17,21.00
29089,19.61,1040.18,668.34,668.39,0.01,0.04,1.13,0.99,-11.51,7.06,8.76,-89.69,-38.95,20.51
29122,19.61,1040.18,668.34,668.38,0.09,-0.02,1.10,0.71,-0.97,9.84,8.64,-89.71,-38.62,21.00
29153,19.61,1040.17,668.45,668.40,0.09,0.00,1.22,-8.40,-9.28,1.00,8.26,-89.98,-38.59,21.48
29185,19.61,1040.17,668.45,668.41,0.01,0.05,1.18,-16.26,-14.61,5.77,7.68,-90.34,-38.41,21.48
29217,19.61,1040.17,668.45,668.41,0.11,0.04,1.16,-14.71,-9.99,6.28,7.16,-90.65,-38.21,21.48
29248,19.61,1040.20,668.17,668.37,0.08,0.06,1.21,-11.18,-33.14,3.00,6.77,-91.65,-38.11,21.00
29280,19.61,1040.20,668.17,668.33,0.05,0.07,1.17,-12.42,-38.99,-5.97,6.37,-92.74,-38.29,21.00
29314,19.61,1040.20,668.17,668.29,0.05,0.07,1.18,-9.50,-32.44,-7.65,6.04,-93.71,-38.55,21.00
29346,19.61,1040.17,668.44,668.32,0.06,0.10,1.22,-0.43,-31.34,3.00,6.05,-94.57,-38.46,21.00
29378,19.61,1040.17,668.44,668.35,0.10,0.09,1.26,6.49,-38.06,3.64,6.26,-95.66,-38.34,21.48
29409,19.61,1040.17,668.44,668.37,0.15,0.03,1.24,8.39,-45.09,-4.16,6.47,-96.95,-38.47,21.00
29441,19.61,1040.19,668.31,668.36,0.11,0.06,1.29,10.15,-47.80,-1.39,6.75,-98.30,-38.52,21.00
29475,19.61,1040.19,668.31,668.35,0.09,0.07,1.29,14.91,-45.29,11.13,7.23,-99.62,-38.14,20.51
29506,19.61,1040.19,668.31,668.34,0.13,0.03,1.29,15.31,-40.03,-1.17,7.62,-100.66,-38.17,21.48
29537,19.61,1040.17,668.41,668.35,0.16,0.08,1.35,13.98,-51.20,-8.84,8.00,-102.03,-38.45,21.48
29569,19.61,1040.17,668.41,668.36,0.22,0.07,1.37,16.85,-49.67,7.79,8.48,-103.42,-38.20,21.97
29601,19.61,1040.17,668.41,668.37,0.17,0.02,1.40,17.91,-54.50,7.13,8.94,-104.89,-37.97,21.00
29632,19.61,1040.17,668.40,668.38,0.17,0.02,1.37,20.99,-53.16,-2.97,9.49,-106.29,-38.07,21.00
29666,19.61,1040.17,668.40,668.38,0.29,0.08,1.33,15.75,-51.83,-6.30,9.92,-107.79,-38.27,21.48
29698,19.61,1040.17,668.40,668.39,0.23,0.02,1.42,11.58,-48.53,-0.79,10.15,-109.03,-38.30,21.00
29730,19.61,1040.17,668.43,668.40,0.22,0.05,1.39,7.31,-56.01,0.34,10.26,-110.48,-38.29,20.51
29762,19.61,1040.17,668.43,668.40,0.28,0.02,1.35,5.80,-45.81,-4.97,10.30,-111.64,-38.45,20.51
29793,19.61,1040.17,668.43,668.41,0.25,0.09,1.45,-3.82,-48.41,-17.98,10.10,-112.77,-39.00,21.00
29827,19.61,1040.17,668.40,668.41,0.29,0.08,1.46,1.98,-46.97,-9.10,10.07,-114.00,-39.31,20.51
29859,19.61,1040.17,668.40,668.41,0.30,0.07,1.42,8.36,-40.42,1.82,10.24,-114.92,-39.26,21.00
29890,19.61,1040.17,668.40,668.40,0.32,0.09,1.47,2.94,-40.12,-2.42,10.24,-115.78,-39.33,21.00
29921,19.61,1040.17,668.45,668.41,0.41,0.06,1.54,-5.90,-58.48,-7.42,9.94,-117.24,-39.56,20.02
29953,19.61,1040.17,668.45,668.42,0.41,0.07,1.54,-7.09,-64.50,-8.96,9.62,-118.91,-39.85,20.51
29985,19.61,1040.17,668.45,668.43,0.39,0.03,1.51,-5.30,-53.29,-10.03,9.33,-120.19,-40.17,21.00
30018,19.61,1040.17,668.42,668.43,0.61,0.46,1.74,-13.71,-21.81,-14.97,9.03,-120.56,-40.66,21.48
30050,19.61,1040.17,668.42,668.42,0.45,0.06,1.53,5.60,-40.07,1.97,9.12,-121.43,-40.60,20.02
30082,19.61,1040.17,668.42,668.42,0.44,0.05,1.48,5.91,-29.84,3.48,9.21,-121.96,-40.49,20.51
30114,19.61,1040.18,668.31,668.40,0.47,0.04,1.55,-1.13,-21.84,-10.47,9.06,-122.24,-40.82,20.51
30146,19.61,1040.18,668.31,668.38,0.53,0.04,1.53,2.36,-26.71,-0.30,9.03,-122.71,-40.83,21.00
30179,19.61,1040.18,668.31,668.37,0.49,0.03,1.51,2.67,-17.20,-3.13,9.01,-122.87,-40.94,20.51
30211,19.61,1040.16,668.54,668.40,0.52,0.07,1.57,-4.32,-11.37,-13.87,8.79,-122.82,-41.38,21.00
30243,19.61,1040.16,668.54,668.43,0.57,0.07,1.59,0.52,-22.80,-11.23,8.73,-123.17,-41.74,21.48
30274,19.61,1040.16,668.54,668.45,0.54,0.04,1.57,8.64,-27.57,4.13,8.89,-123.62,-41.61,21.00
30305,19.61,1040.16,668.49,668.46,0.54,0.05,1.62,6.52,-28.80,8.06,8.99,-124.09,-41.36,21.48
30339,19.61,1040.16,668.49,668.47,0.56,0.02,1.58,-7.22,-31.41,-3.51,8.63,-124.74,-41.48,21.00
30371,19.61,1040.16,668.49,668.47,0.61,0.02,1.61,-19.90,-22.44,-1.60,7.89,-125.06,-41.53,20.02
30402,19.61,1040.16,668.49,668.47,0.66,0.03,1.64,-23.26,-19.70,4.06,7.09,-125.29,-41.41,21.00
30433,19.61,1040.16,668.49,668.48,0.66,0.04,1.71,-19.26,-23.32,-3.19,6.44,-125.61,-41.50,20.51
30465,19.61,1040.16,668.49,668.48,0.65,0.05,1.67,-6.92,-39.51,3.12,6.17,-126.46,-41.40,21.00
30497,19.61,1040.16,668.53,668.49,0.65,0.02,1.61,2.03,-47.75,1.82,6.17,-127.56,-41.35,20.51
30530,19.61,1040.16,668.53,668.50,0.67,-0.00,1.58,4.06,-40.80,-0.50,6.22,-128.48,-41.36,20.51
30561,19.61,1040.16,668.53,668.51,0.69,-0.01,1.59,4.73,-28.39,-1.29,6.28,-128.94,-41.40,21.00
30593,19.61,1040.19,668.29,668.46,0.71,-0.03,1.62,10.94,-18.65,0.02,6.53,-129.11,-41.40,21.48
30625,19.61,1040.19,668.29,668.43,0.74,-0.00,1.57,14.50,-12.76,6.52,6.90,-129.14,-41.19,20.51
30656,19.61,1040.19,668.29,668.40,0.73,-0.01,1.63,3.17,-5.14,2.40,6.90,-128.89,-41.12,21.48
30690,19.61,1040.17,668.40,668.40,0.75,-0.01,1.68,-8.38,-7.55,-8.20,6.53,-128.73,-41.39,21.00
30722,19.61,1040.17,668.40,668.40,0.75,-0.03,1.68,-4.22,-15.84,-9.36,6.30,-128.83,-41.69,21.00
30754,19.61,1040.17,668.40,668.40,0.75,-0.02,1.67,3.45,-17.87,2.14,6.32,-128.99,-41.62,20.51
30786,19.61,1040.16,668.54,668.43,0.75,-0.02,1.62,2.78,-16.32,2.83,6.31,-129.12,-41.53,20.51
30817,19.61,1040.16,668.54,668.45,0.76,-0.00,1.65,-0.48,-15.06,-2.85,6.22,-129.19,-41.62,20.51
30849,19.61,1040.16,668.54,668.47,0.78,-0.01,1.63,-0.00,-13.78,-1.55,6.13,-129.24,-41.67,21.48
30883,19.61,1040.18,668.32,668.44,0.78,-0.02,1.63,-6.69,-11.64,-9.08,5.82,-129.25,-41.97,19.53
30914,19.61,1040.18,668.32,668.42,0.77,-0.01,1.63,-8.75,-9.40,-12.45,5.48,-129.15,-42.36,21.00
30945,19.61,1040.18,668.32,668.40,0.81,0.03,1.63,1.07,-8.25,-2.03,5.46,-129.04,-42.42,20.51
30977,19.61,1040.15,668.59,668.44,0.81,-0.02,1.63,12.00,-11.66,8.31,5.77,-129.04,-42.16,21.00
31009,19.61,1040.15,668.59,668.47,0.80,-0.03,1.62,12.03,-6.88,3.80,6.06,-128.90,-42.04,20.51
31042,19.61,1040.15,668.59,668.49,0.81,0.01,1.60,-0.03,-8.93,-6.81,5.99,-128.84,-42.26,21.00
31073,19.61,1040.18,668.32,668.46,0.81,-0.00,1.63,-6.90,-4.53,3.44,5.71,-128.62,-42.15,20.02
31105,19.61,1040.18,668.32,668.43,0.80,-0.01,1.63,-9.50,-4.06,0.43,5.34,-128.39,-42.14,21.00
31137,19.61,1040.18,668.32,668.41,0.79,0.00,1.63,-3.39,3.07,-0.78,5.17,-127.94,-42.16,21.48
31168,19.61,1040.16,668.51,668.43,0.82,-0.01,1.64,0.50,4.36,-6.04,5.13,-127.47,-42.36,20.51
31202,19.61,1040.16,668.51,668.44,0.81,0.00,1.68,9.72,1.56,2.93,5.39,-127.08,-42.26,21.00
31234,19.61,1040.16,668.51,668.46,0.82,-0.01,1.67,12.01,-1.90,1.32,5.70,-126.82,-42.22,21.48
31266,19.61,1040.17,668.44,668.45,0.82,-0.01,1.65,12.32,-4.71,-2.27,6.01,-126.65,-42.29,20.51
31298,19.61,1040.17,668.44,668.45,0.83,-0.03,1.66,15.03,-4.94,-0.68,6.39,-126.50,-42.31,20.02
31329,19.61,1040.17,668.44,668.45,0.82,-0.04,1.67,17.37,-4.87,1.74,6.81,-126.33,-42.26,20.51
31361,19.61,1040.17,668.51,668.46,0.80,-0.05,1.64,13.32,-1.34,-3.74,7.11,-126.06,-42.38,21.00
31395,19.61,1040.17,668.46,668.46,0.83,-0.02,1.63,8.07,2.37,0.39,7.28,-125.70,-42.37,21.00
31426,19.61,1040.17,668.46,668.46,0.80,-0.04,1.64,0.99,7.75,-1.65,7.18,-125.16,-42.42,21.00
31457,19.61,1040.17,668.46,668.46,0.82,-0.02,1.66,-5.24,6.74,-6.13,6.92,-124.68,-42.61,21.00
31489,19.61,1040.17,668.44,668.46,0.82,0.01,1.69,-3.32,1.56,-0.68,6.73,-124.35,-42.63,20.51
31521,19.61,1040.17,668.44,668.45,0.81,0.02,1.64,0.53,-0.67,-2.50,6.67,-124.10,-42.71,20.51
31554,19.61,1040.17,668.44,668.45,0.79,0.02,1.66,4.64,5.55,0.80,6.74,-123.65,-42.68,21.48
31585,19.61,1040.17,668.42,668.44,0.82,0.01,1.70,7.03,1.81,-2.21,6.88,-123.33,-42.75,21.00
31617,19.61,1040.17,668.42,668.44,0.80,0.00,1.64,6.15,-2.93,-4.12,6.98,-123.17,-42.88,20.51
31649,19.61,1040.17,668.42,668.44,0.79,-0.03,1.67,9.17,2.28,-2.27,7.16,-122.83,-42.96,21.00
31680,19.61,1040.16,668.53,668.46,0.82,-0.01,1.70,9.65,-0.29,-0.01,7.36,-122.60,-42.96,21.00
31712,19.61,1040.16,668.53,668.47,0.81,-0.03,1.66,7.57,-1.67,-3.05,7.47,-122.41,-43.05,21.00
31746,19.61,1040.16,668.53,668.48,0.81,-0.00,1.67,6.81,-0.16,-1.49,7.59,-122.18,-43.10,20.02
31778,19.61,1040.17,668.45,668.48,0.81,-0.02,1.69,4.12,-1.87,1.96,7.61,-122.00,-43.04,21.48
31810,19.61,1040.17,668.45,668.47,0.80,-0.04,1.61,-1.38,-1.84,-12.33,7.44,-121.84,-43.43,20.02
31841,19.61,1040.17,668.45,668.47,0.77,0.03,1.64,0.65,3.85,-13.08,7.38,-121.49,-43.84,21.00
31873,19.61,1040.17,668.45,668.47,0.80,0.05,1.14,0.90,-0.44,7.10,7.35,-121.47,-43.61,20.02
31907,19.61,1040.17,668.45,668.46,0.41,-0.00,0.80,-4.00,82.74,23.00,7.11,-118.52,-42.83,21.48
31938,19.61,1040.17,668.45,668.46,0.36,-0.05,0.86,0.91,142.62,14.32,6.99,-113.97,-42.39,21.48
31969,19.61,1040.18,668.33,668.44,0.22,-0.04,0.99,-0.78,147.94,-13.63,6.83,-109.14,-42.81,21.00
32001,19.61,1040.18,668.33,668.41,0.10,0.03,1.05,2.00,114.86,-18.79,6.83,-105.16,-43.41,20.51
32033,19.61,1040.18,668.33,668.40,-0.07,0.06,1.10,14.74,92.66,8.31,7.27,-101.77,-43.14,21.00
32064,19.61,1040.20,668.22,668.36,-0.22,0.02,1.14,25.92,122.43,18.49,8.00,-97.37,-42.55,20.51
32098,19.61,1040.20,668.22,668.33,-0.39,0.01,1.20,27.55,204.81,-17.26,8.79,-90.13,-43.12,21.00
32130,19.61,1040.20,668.22,668.31,-0.55,0.07,1.27,24.71,272.63,-47.28,9.49,-81.00,-44.63,21.48
32162,19.61,1040.18,668.34,668.31,-0.69,0.12,1.37,36.10,274.81,-12.62,10.58,-71.92,-45.04,20.02
32194,19.61,1040.18,668.34,668.32,-0.78,0.09,1.44,40.76,225.90,8.14,11.75,-64.53,-44.78,21.00
32225,19.61,1040.18,668.34,668.32,-0.71,0.03,1.41,28.24,181.06,-23.00,12.45,-58.90,-45.49,21.48
32259,19.61,1040.19,668.30,668.32,-0.69,0.09,1.35,17.91,199.09,-47.29,12.91,-52.24,-47.10,21.48
32291,19.61,1040.19,668.30,668.31,-0.58,0.11,1.28,22.30,253.50,-20.87,13.48,-44.46,-47.77,21.00
32323,19.61,1040.19,668.30,668.31,-0.53,0.07,1.28,25.10,273.23,4.31,14.10,-36.25,-47.63,21.00
32354,19.61,1040.20,668.21,668.29,-0.41,0.04,1.27,11.91,228.46,-6.52,14.26,-29.92,-47.83,20.51
32386,19.61,1040.20,668.21,668.27,-0.38,0.06,1.27,-3.33,150.01,-11.95,13.98,-25.99,-48.21,21.48
32420,19.61,1040.20,668.21,668.26,-0.12,0.05,1.13,-11.21,101.24,-1.11,13.42,-23.67,-48.25,21.00
32452,19.61,1040.20,668.21,668.25,-0.00,0.04,1.04,-11.97,111.26,12.87,12.87,-21.40,-47.84,21.48
32483,19.61,1040.20,668.21,668.24,0.12,0.00,0.98,-13.47,139.68,14.43,12.25,-18.56,-47.39,20.02
32515,19.61,1040.20,668.21,668.23,0.11,-0.01,1.03,-18.11,137.73,6.02,11.48,-15.69,-47.20,21.48
32547,19.61,1040.19,668.30,668.25,0.35,-0.02,0.96,-21.24,93.70,-0.47,10.61,-10.93,-47.21,20.51
32578,19.61,1040.19,668.30,668.26,0.30,-0.00,1.00,-21.04,25.41,0.26,9.80,-8.38,-47.21,21.00
32611,19.61,1040.19,668.30,668.27,0.38,-0.01,0.94,-15.45,-50.33,8.28,9.14,-8.37,-46.93,20.51
32643,19.61,1040.20,668.19,668.25,0.31,-0.02,0.94,-9.55,-95.89,9.64,8.69,-9.67,-46.62,21.00
32675,19.61,1040.20,668.19,668.24,0.25,-0.03,0.93,-5.45,-112.22,-1.02,8.36,-15.00,-46.66,20.51
32706,19.61,1040.20,668.19,668.23,0.17,-0.01,0.97,-1.85,-111.26,-13.16,8.17,-19.97,-47.07,20.51
32737,19.61,1040.18,668.31,668.25,-0.03,0.01,1.08,1.92,-117.86,-20.03,8.12,-24.81,-47.69,20.51
32771,19.61,1040.18,668.31,668.26,-0.20,0.04,1.17,7.45,-155.77,-12.21,8.29,-31.00,-48.10,21.48
32803,19.61,1040.18,668.31,668.27,-0.36,0.05,1.23,8.32,-206.47,-10.39,8.47,-38.22,-48.43,21.00
32834,19.61,1040.20,668.15,668.25,-0.50,0.04,1.26,7.49,-243.12,-13.74,8.62,-46.10,-48.86,21.00
32865,19.61,1040.20,668.15,668.23,-0.55,0.06,1.27,4.65,-243.66,-18.27,8.69,-53.81,-49.43,21.48
32897,19.61,1040.20,668.15,668.21,-0.57,0.07,1.29,0.53,-214.67,-13.49,8.64,-60.68,-49.86,20.51
32929,19.60,1040.22,668.03,668.17,-0.65,0.09,1.35,-6.95,-196.35,-6.18,8.36,-66.81,-50.06,21.00
32959,19.60,1040.22,668.03,668.14,-0.64,0.08,1.35,-18.16,-208.45,-0.81,7.76,-72.99,-50.08,21.00
32991,19.60,1040.22,668.03,668.12,-0.63,0.08,1.34,-29.24,-233.34,2.42,6.83,-79.81,-50.01,20.51
33023,19.61,1040.20,668.16,668.13,-0.52,0.08,1.27,-36.00,-236.27,4.97,5.67,-86.87,-49.85,21.00
33054,19.61,1040.20,668.16,668.13,-0.37,0.06,1.19,-35.42,-205.22,8.95,4.58,-92.72,-49.57,20.51
33085,19.61,1040.20,668.16,668.14,-0.27,0.04,1.14,-28.83,-156.58,10.49,3.71,-97.05,-49.24,21.00
33119,19.60,1040.22,668.03,668.12,-0.23,0.03,1.15,-17.93,-124.07,10.60,3.11,-100.71,-48.88,20.02
33152,19.60,1040.22,668.03,668.10,-0.09,0.01,1.10,-6.49,-123.89,5.51,2.90,-104.31,-48.70,20.51
33183,19.60,1040.22,668.03,668.08,0.06,-0.01,1.04,4.44,-127.40,-1.25,3.01,-107.85,-48.74,21.00
33214,19.60,1040.20,668.21,668.11,0.20,-0.01,0.95,18.03,-115.11,-1.39,3.54,-111.12,-48.78,21.00
33246,19.60,1040.20,668.21,668.13,0.34,-0.01,0.87,31.68,-77.16,-0.94,4.50,-113.43,-48.81,20.51
33280,19.60,1040.20,668.21,668.14,0.40,-0.03,0.85,42.10,-20.44,-5.63,5.82,-114.04,-49.00,21.00
33311,19.60,1040.19,668.25,668.16,0.40,-0.02,0.86,45.89,24.49,-14.24,7.12,-113.21,-49.45,21.00
33342,19.60,1040.19,668.25,668.18,0.36,-0.01,0.89,44.76,50.80,-17.89,8.37,-111.54,-50.00,21.00
33374,19.60,1040.19,668.25,668.19,0.29,0.02,0.94,39.81,61.18,-9.49,9.53,-109.43,-50.30,21.00
33406,19.61,1040.20,668.16,668.19,0.20,0.02,0.98,30.21,67.55,-3.17,10.35,-107.04,-50.41,21.00
33439,19.61,1040.20,668.16,668.18,0.09,0.02,1.01,14.09,87.09,-9.48,10.67,-103.88,-50.72,21.00
33470,19.61,1040.20,668.16,668.18,-0.03,0.04,1.06,-0.31,126.14,-13.69,10.54,-99.63,-51.14,21.00
33502,19.61,1040.19,668.27,668.20,-0.16,0.05,1.12,-9.01,172.51,-5.55,10.14,-93.76,-51.32,21.48
33534,19.61,1040.19,668.27,668.21,-0.31,0.05,1.19,-14.14,201.06,2.78,9.59,-86.99,-51.23,21.48
33565,19.61,1040.19,668.27,668.22,-0.41,0.03,1.25,-20.13,204.60,1.41,8.86,-80.37,-51.19,21.00
33596,19.61,1040.19,668.23,668.23,-0.52,0.05,1.30,-25.07,194.63,-2.58,8.01,-74.11,-51.27,20.51
33630,19.61,1040.19,668.23,668.23,-0.57,0.06,1.32,-22.45,195.96,5.90,7.20,-67.33,-51.07,21.00
33662,19.61,1040.19,668.23,668.23,-0.57,0.06,1.31,-14.93,215.23,14.72,6.68,-60.45,-50.60,21.48
33693,19.61,1040.24,667.89,668.16,-0.59,0.04,1.31,-5.62,234.14,12.52,6.45,-53.34,-50.21,21.00
33724,19.61,1040.24,667.89,668.11,-0.54,0.03,1.31,5.17,231.97,3.30,6.55,-46.48,-50.11,21.00
33756,19.61,1040.24,667.89,668.07,-0.47,0.03,1.29,16.85,205.27,-2.70,7.02,-40.40,-50.19,21.00
33790,19.61,1040.21,668.13,668.08,-0.36,0.03,1.25,28.49,167.17,-3.58,7.91,-35.40,-50.31,20.51
33821,19.61,1040.21,668.13,668.09,-0.23,0.03,1.18,36.71,146.17,-6.07,8.94,-31.72,-50.50,20.51
33852,19.61,1040.21,668.13,668.10,-0.09,0.01,1.10,40.99,140.72,-12.93,10.07,-28.41,-50.90,20.51
33884,19.61,1040.22,668.01,668.08,0.00,0.02,1.06,40.67,135.81,-16.93,11.21,-25.29,-51.45,21.00
33916,19.61,1040.22,668.01,668.07,0.09,0.02,1.05,36.99,114.81,-13.57,12.22,-22.98,-51.88,21.00
33947,19.61,1040.22,668.01,668.06,0.18,0.01,1.01,30.32,79.71,-9.22,12.95,-21.99,-52.17,21.48
33986,19.61,1040.21,668.10,668.06,0.25,0.00,1.00,18.94,24.25,-7.25,13.47,-22.60,-52.45,21.00
34017,19.61,1040.21,668.10,668.07,0.27,-0.00,0.98,9.07,-12.07,-6.73,13.52,-24.52,-52.66,21.00
34049,19.61,1040.21,668.10,668.08,0.27,0.01,0.96,0.93,-36.33,-1.58,13.34,-27.19,-52.71,20.51
34081,19.61,1040.19,668.29,668.12,0.24,0.01,0.97,-5.59,-53.12,5.38,12.95,-30.29,-52.53,21.48
34112,19.61,1040.19,668.29,668.15,0.18,0.01,0.99,-12.74,-74.41,8.83,12.35,-33.91,-52.25,21.00
34146,19.61,1040.19,668.29,668.18,0.06,0.01,1.05,-20.20,-107.84,7.84,11.50,-38.48,-51.99,21.00
34178,19.61,1040.18,668.31,668.21,-0.05,0.02,1.09,-26.46,-145.46,4.34,10.51,-43.92,-51.86,21.00
34210,19.61,1040.18,668.31,668.23,-0.20,0.04,1.16,-29.65,-177.89,4.74,9.46,-50.12,-51.70,21.48
34242,19.61,1040.18,668.31,668.25,-0.33,0.04,1.19,-29.55,-194.91,7.82,8.43,-56.62,-51.45,20.02
34273,19.61,1040.20,668.20,668.24,-0.42,0.04,1.23,-29.13,-195.99,2.52,7.45,-62.75,-51.38,21.48
34307,19.61,1040.20,668.20,668.23,-0.48,0.05,1.27,-28.16,-190.53,-7.58,6.45,-69.13,-51.63,20.51
34339,19.61,1040.20,668.20,668.22,-0.52,0.05,1.29,-23.00,-192.70,-9.80,5.69,-75.04,-51.95,21.00
34370,19.60,1040.21,668.11,668.20,-0.56,0.06,1.31,-15.93,-204.79,-6.90,5.19,-81.00,-52.16,20.51
34401,19.60,1040.21,668.11,668.18,-0.51,0.04,1.28,-9.32,-215.61,-9.66,4.89,-87.18,-52.46,21.00
34433,19.60,1040.21,668.11,668.17,-0.45,0.04,1.24,-3.24,-209.69,-18.30,4.77,-93.31,-53.05,21.00
34465,19.60,1040.22,668.01,668.14,-0.32,0.04,1.17,6.67,-183.66,-18.03,4.96,-98.59,-53.62,21.00
34498,19.60,1040.22,668.01,668.11,-0.24,0.05,1.15,19.20,-150.67,-6.13,5.58,-102.96,-53.82,20.51
34529,19.60,1040.22,668.01,668.09,-0.18,0.02,1.14,27.39,-132.15,-0.15,6.37,-106.43,-53.83,20.51
34561,19.60,1040.22,668.03,668.08,-0.09,0.00,1.11,27.77,-127.61,-12.42,7.16,-109.90,-54.23,20.51
34593,19.60,1040.22,668.03,668.07,-0.03,0.03,1.06,28.56,-124.13,-15.07,7.99,-113.26,-54.71,21.48
34624,19.60,1040.22,668.03,668.06,0.08,0.05,1.01,31.22,-105.63,2.45,8.91,-116.10,-54.63,21.00
34658,19.61,1040.19,668.26,668.10,0.23,0.02,0.93,30.49,-67.41,19.55,9.79,-117.92,-53.99,20.51
34690,19.61,1040.19,668.26,668.13,0.30,-0.01,0.91,22.67,-25.31,15.67,10.34,-118.42,-53.48,21.48
34722,19.61,1040.19,668.26,668.16,0.34,-0.02,0.90,11.43,9.53,2.26,10.51,-117.86,-53.41,21.00
34754,19.60,1040.20,668.17,668.16,0.32,-0.00,0.91,3.57,31.79,0.22,10.46,-116.59,-53.40,21.00
34785,19.60,1040.20,668.17,668.16,0.30,0.01,0.93,-0.11,47.64,10.98,10.30,-114.87,-53.06,20.51
34819,19.60,1040.20,668.17,668.16,0.20,-0.01,0.98,-5.82,63.24,11.91,9.94,-112.38,-52.66,21.00
34851,19.60,1040.20,668.18,668.17,0.10,-0.01,1.01,-14.13,84.17,-3.95,9.33,-109.30,-52.79,20.51
34882,19.60,1040.20,668.18,668.17,-0.01,0.02,1.05,-15.59,114.75,-8.70,8.74,-105.31,-53.06,21.48
34913,19.60,1040.20,668.18,668.17,-0.11,0.04,1.10,-8.83,149.64,7.30,8.38,-100.24,-52.83,20.51
34945,19.61,1040.22,667.99,668.14,-0.22,0.02,1.15,-3.45,172.91,13.12,8.17,-94.29,-52.41,20.02
34977,19.61,1040.22,667.99,668.11,-0.31,0.01,1.21,-4.74,177.47,-4.23,7.91,-88.25,-52.54,20.51
35010,19.61,1040.22,667.99,668.09,-0.39,0.03,1.25,-3.36,173.35,-15.00,7.72,-82.22,-53.04,20.51
35041,19.60,1040.24,667.82,668.03,-0.45,0.06,1.26,5.80,177.18,-3.42,7.85,-76.50,-53.15,20.02
35073,19.60,1040.24,667.82,667.99,-0.47,0.04,1.27,15.43,191.56,5.67,8.25,-70.25,-52.96,20.51
35105,19.60,1040.24,667.82,667.96,-0.49,0.02,1.27,18.55,205.39,-8.10,8.73,-63.68,-53.22,21.48
35136,19.60,1040.24,667.86,667.94,-0.45,0.04,1.26,19.05,204.71,-22.62,9.23,-57.29,-53.95,20.02
35170,19.60,1040.23,667.92,667.93,-0.38,0.05,1.25,24.01,185.55,-14.87,9.92,-51.50,-54.44,21.00
35202,19.60,1040.23,667.92,667.93,-0.30,0.04,1.21,25.97,160.65,-6.70,10.62,-46.85,-54.65,21.00
35234,19.60,1040.23,667.74,667.89,-0.19,0.02,1.17,21.37,140.80,-12.03,11.15,-43.02,-55.04,21.48
35266,19.60,1040.25,667.74,667.86,-0.10,0.02,1.11,15.80,128.74,-17.42,11.49,-39.71,-55.59,21.48
35297,19.60,1040.25,667.74,667.84,0.01,0.04,1.06,12.53,119.39,-9.81,11.73,-37.00,-55.90,21.00
35331,19.60,1040.22,668.05,667.88,0.09,0.03,1.04,8.84,100.78,0.75,11.86,-34.70,-55.87,21.00
35363,19.60,1040.22,668.05,667.91,0.17,0.00,1.03,1.66,70.71,0.93,11.73,-33.67,-55.84,21.48
35394,19.60,1040.22,668.05,667.94,0.19,-0.01,1.01,-7.27,34.13,-5.90,11.31,-33.87,-56.03,21.00
35425,19.60,1040.22,668.05,667.96,0.22,0.00,1.00,-14.55,-1.45,-9.46,10.69,-35.18,-56.32,20.51
35457,19.60,1040.23,667.93,667.96,0.20,0.02,0.99,-16.69,-28.21,-2.04,10.02,-37.29,-56.39,20.51
35489,19.60,1040.23,667.93,667.95,0.18,0.01,0.99,-15.41,-47.74,9.53,9.40,-39.94,-56.08,20.51
35522,19.60,1040.23,667.93,667.95,0.16,-0.01,1.00,-15.33,-65.54,10.03,8.76,-43.14,-55.75,21.00
35553,19.60,1040.22,668.03,667.96,0.07,-0.01,1.05,-16.97,-88.42,-3.29,8.10,-46.74,-55.85,20.51
35585,19.60,1040.22,668.03,667.98,-0.03,0.01,1.10,-15.45,-120.38,-12.76,7.51,-51.24,-56.26,21.00
35617,19.60,1040.22,668.03,667.99,-0.14,0.03,1.12,-8.00,-153.38,-5.26,7.19,-56.58,-56.43,21.00
35648,19.60,1040.20,668.21,668.03,-0.24,0.01,1.16,1.19,-175.46,0.43,7.15,-62.41,-56.41,21.00
35682,19.60,1040.20,668.21,668.07,-0.32,0.01,1.19,7.00,-182.56,-13.11,7.29,-68.46,-56.85,21.00
35714,19.60,1040.20,668.21,668.10,-0.36,0.03,1.20,13.26,-177.05,-25.14,7.63,-74.01,-57.65,21.00
35746,19.61,1040.22,668.03,668.08,-0.42,0.06,1.24,23.71,-173.46,-14.49,8.32,-79.29,-58.12,21.48
35778,19.61,1040.22,668.03,668.07,-0.43,0.04,1.25,31.25,-180.99,-2.15,9.22,-84.69,-58.18,21.00
35809,19.61,1040.22,668.03,668.06,-0.43,0.03,1.25,32.12,-192.56,-2.35,10.09,-90.16,-58.26,21.00
35843,19.61,1040.22,668.01,668.05,-0.37,0.04,1.21,28.38,-193.98,-6.38,10.91,-96.18,-58.47,21.00
35875,19.61,1040.22,668.01,668.04,-0.29,0.05,1.17,26.23,-174.35,2.71,11.61,-101.14,-58.39,21.00
35906,19.61,1040.22,668.01,668.04,-0.23,0.05,1.15,21.46,-146.82,15.71,12.12,-105.04,-57.90,21.00
35937,19.60,1040.25,667.82,667.99,-0.17,0.03,1.12,10.45,-125.34,17.16,12.28,-108.27,-57.37,21.48
35969,19.60,1040.25,667.82,667.96,-0.10,0.03,1.11,-1.76,-114.35,12.03,12.05,-111.29,-56.98,21.48
36001,19.60,1040.25,667.82,667.93,-0.02,0.04,1.08,-9.82,-107.32,18.60,11.59,-114.10,-56.39,21.00
36034,19.61,1040.20,668.20,667.98,0.10,0.02,1.01,-13.97,-90.88,32.60,10.98,-116.57,-55.31,20.51
36065,19.61,1040.20,668.20,668.03,0.20,-0.01,0.95,-18.17,-63.14,32.00,10.24,-118.09,-54.32,21.00
36097,19.61,1040.20,668.20,668.06,0.26,-0.03,0.93,-21.67,-29.25,15.55,9.37,-118.65,-53.82,20.51
36129,19.60,1040.21,668.11,668.07,0.29,-0.02,0.93,-19.76,2.04,4.00,8.59,-118.25,-53.69,21.00
36160,19.60,1040.21,668.11,668.08,0.27,-0.00,0.94,-10.90,25.88,9.29,8.12,-117.09,-53.40,21.00
36194,19.60,1040.21,668.11,668.09,0.22,-0.01,0.96,1.40,43.20,18.45,8.04,-115.31,-52.79,21.00
36226,19.60,1040.18,668.31,668.13,0.16,-0.03,1.00,7.43,58.02,5.96,8.12,-113.06,-52.60,21.00
36258,19.60,1040.18,668.31,668.17,0.09,-0.02,1.02,10.84,78.19,-13.68,8.32,-110.14,-53.04,20.51
36290,19.60,1040.18,668.31,668.19,0.02,0.01,1.05,18.24,105.90,-13.54,8.79,-106.34,-53.47,21.00
36321,19.60,1040.20,668.21,668.20,-0.07,0.02,1.09,26.87,133.17,-4.65,9.50,-101.79,-53.61,21.00
36355,19.60,1040.20,668.21,668.20,-0.18,0.01,1.15,28.04,153.20,-12.38,10.30,-96.16,-54.03,21.00
36387,19.60,1040.20,668.21,668.20,-0.27,0.02,1.18,22.23,159.81,-29.19,10.86,-90.67,-54.97,21.00
36418,19.60,1040.21,668.08,668.18,-0.33,0.05,1.21,19.40,162.23,-28.53,11.33,-85.31,-55.85,21.48
36449,19.60,1040.21,668.08,668.16,-0.38,0.05,1.24,19.83,168.51,-16.18,11.80,-79.84,-56.35,20.51
36481,19.60,1040.21,668.08,668.14,-0.40,0.03,1.24,15.94,179.23,-17.39,12.13,-73.96,-56.91,21.00
36513,19.60,1040.20,668.15,668.15,-0.39,0.03,1.24,7.68,184.55,-28.09,12.21,-68.04,-57.81,21.48
36546,19.60,1040.20,668.15,668.15,-0.39,0.06,1.24,0.99,181.82,-25.69,12.10,-62.14,-58.66,21.00
36577,19.60,1040.20,668.15,668.15,-0.31,0.05,1.22,-0.95,168.49,-10.74,11.92,-57.20,-58.99,20.51
36609,19.60,1040.21,668.07,668.13,-0.26,0.03,1.19,-5.03,152.25,-3.51,11.60,-52.73,-59.10,21.00
36641,19.60,1040.21,668.07,668.12,-0.16,0.02,1.15,-12.75,138.88,-8.41,11.03,-48.86,-59.37,21.00
36672,19.60,1040.21,668.07,668.11,-0.06,0.02,1.11,-19.01,127.00,-8.88,10.28,-45.53,-59.66,20.51
36706,19.60,1040.21,668.08,668.10,0.01,0.02,1.07,-20.03,111.61,2.10,9.50,-42.72,-59.59,21.00
36738,19.60,1040.21,668.08,668.10,0.08,0.01,1.05,-19.09,88.75,11.62,8.78,-40.86,-59.21,20.51
36770,19.60,1040.21,668.08,668.09,0.14,-0.00,1.03,-17.88,59.59,11.67,8.08,-40.02,-58.84,21.00
36802,19.60,1040.21,668.06,668.09,0.18,-0.02,1.02,-16.02,28.17,4.03,7.45,-40.24,-58.71,21.00
36833,19.60,1040.21,668.06,668.08,0.19,-0.01,1.00,-11.67,-0.82,-2.96,6.98,-41.37,-58.80,21.48
36867,19.60,1040.21,668.06,668.08,0.18,-0.00,1.00,-2.80,-26.73,-3.26,6.79,-43.33,-58.91,21.48
36899,19.60,1040.23,667.91,668.05,0.15,-0.01,1.02,7.02,-47.61,-0.36,6.92,-45.82,-58.93,20.51
36930,19.60,1040.23,667.91,668.02,0.12,-0.01,1.02,14.04,-70.22,-3.89,7.24,-48.86,-59.05,20.02
36961,19.60,1040.23,667.91,668.00,0.04,-0.01,1.06,17.42,-94.99,-15.72,7.66,-52.51,-59.53,21.48
36993,19.60,1040.21,668.08,668.01,-0.04,0.01,1.09,21.91,-120.74,-18.06,8.25,-56.90,-60.11,20.51
37025,19.60,1040.21,668.08,668.03,-0.14,0.02,1.13,28.49,-143.28,-7.89,9.05,-61.81,-60.36,21.00
37058,19.60,1040.21,668.08,668.04,-0.23,0.01,1.16,32.73,-158.82,-3.45,9.99,-67.19,-60.48,20.51
37089,19.60,1040.22,668.02,668.04,-0.29,0.01,1.18,32.06,-165.83,-10.93,10.82,-72.30,-60.82,21.48
37121,19.60,1040.22,668.02,668.03,-0.32,0.04,1.19,31.68,-167.72,-7.78,11.69,-77.51,-61.07,21.00
37153,19.60,1040.22,668.02,668.03,-0.36,0.05,1.22,29.91,-167.45,7.97,12.49,-82.58,-60.81,21.00
37184,19.60,1040.23,667.98,668.02,-0.36,0.04,1.22,22.85,-170.01,19.24,13.04,-87.63,-60.19,21.48
37218,19.60,1040.23,667.98,668.01,-0.34,0.03,1.21,9.25,-171.67,17.42,13.15,-92.80,-59.62,21.00
37250,19.60,1040.23,667.98,668.00,-0.30,0.04,1.19,-2.05,-165.49,16.02,12.91,-97.55,-59.11,21.48
37282,19.60,1040.22,667.99,668.00,-0.25,0.04,1.16,-9.48,-151.74,25.61,12.44,-101.81,-58.29,21.00
37314,19.60,1040.22,667.99,668.00,-0.19,0.03,1.13,-16.80,-133.41,27.44,11.74,-105.47,-57.41,20.51
37346,19.60,1040.22,667.99,668.00,-0.14,0.01,1.12,-23.26,-118.53,20.92,10.84,-108.63,-56.74,20.51
37381,19.60,1040.22,668.06,668.01,-0.06,0.02,1.08,-24.37,-105.38,19.13,9.86,-111.71,-56.07,21.48
37413,19.60,1040.22,668.06,668.02,0.03,0.01,1.04,-20.17,-92.15,22.55,9.08,-114.09,-55.35,21.48
37444,19.60,1040.22,668.06,668.03,0.12,-0.01,1.00,-15.77,-75.25,18.06,8.45,-115.92,-54.79,21.00
37475,19.60,1040.22,667.98,668.02,0.20,-0.03,0.96,-11.22,-51.02,6.57,7.96,-117.08,-54.59,20.51
37507,19.60,1040.22,667.98,668.01,0.24,-0.02,0.94,-4.72,-24.21,-2.47,7.67,-117.48,-54.66,20.51
37539,19.60,1040.22,667.98,668.01,0.26,-0.01,0.94,4.42,1.91,-3.39,7.69,-117.07,-54.77,20.02
37572,19.60,1040.22,668.06,668.02,0.23,-0.02,0.95,13.34,26.02,-3.92,7.98,-115.86,-54.90,21.00
37603,19.60,1040.22,668.06,668.03,0.17,-0.02,0.98,19.77,46.40,-9.87,8.45,-114.02,-55.21,21.00
37635,19.60,1040.22,668.06,668.03,0.13,-0.01,0.99,24.18,65.59,-17.84,9.07,-111.53,-55.78,21.00
37667,19.60,1040.22,668.04,668.03,0.06,0.00,1.03,27.20,85.03,-20.18,9.80,-108.39,-56.43,21.00
37698,19.60,1040.22,668.04,668.03,-0.01,0.01,1.07,28.10,102.37,-20.32,10.52,-104.80,-57.05,20.51
37731,19.60,1040.22,668.04,668.03,-0.10,0.02,1.10,24.79,123.97,-25.22,11.18,-100.29,-57.89,20.51
37763,19.60,1040.23,667.93,668.01,-0.17,0.03,1.14,19.60,139.06,-28.68,11.64,-95.45,-58.81,20.51
37795,19.60,1040.23,667.93,668.00,-0.24,0.03,1.17,13.63,150.89,-26.90,11.92,-90.27,-59.67,20.51
37826,19.60,1040.23,667.93,667.98,-0.30,0.04,1.21,5.63,157.23,-25.72,11.93,-85.11,-60.46,20.02
37857,19.60,1040.24,667.83,667.95,-0.34,0.04,1.22,-2.45,161.87,-23.39,11.70,-79.87,-61.19,21.00
37891,19.60,1040.24,667.83,667.93,-0.35,0.05,1.22,-8.97,167.47,-15.90,11.26,-74.07,-61.73,21.00
37923,19.60,1040.24,667.83,667.91,-0.33,0.04,1.22,-14.80,168.01,-11.13,10.65,-68.71,-62.08,21.00
37954,19.60,1040.22,668.01,667.93,-0.31,0.04,1.21,-19.91,163.81,-7.42,9.92,-63.77,-62.31,21.48
37985,19.60,1040.22,668.01,667.94,-0.26,0.03,1.20,-23.44,156.40,-0.94,9.09,-59.19,-62.34,21.00
38017,19.60,1040.22,668.01,667.96,-0.19,0.03,1.15,-24.86,144.39,6.92,8.20,-54.99,-62.12,21.00
38049,19.60,1040.23,667.91,667.95,-0.11,0.02,1.12,-25.87,130.04,12.08,7.30,-51.40,-61.74,20.02
38082,19.60,1040.23,667.91,667.94,-0.03,0.02,1.08,-23.55,111.94,18.25,6.45,-48.42,-61.13,21.00
38113,19.60,1040.23,667.91,667.93,0.05,-0.00,1.07,-18.19,90.84,20.11,5.82,-46.44,-60.51,20.51
38145,19.60,1040.24,667.82,667.91,0.08,-0.01,1.05,-12.31,65.82,14.71,5.35,-45.23,-60.04,21.48
38177,19.60,1040.24,667.82,667.89,0.13,-0.02,1.04,-5.04,40.02,6.61,5.11,-44.91,-59.83,20.51
38208,19.60,1040.24,667.82,667.88,0.15,-0.01,1.02,4.29,16.45,1.38,5.18,-45.35,-59.78,21.00
38242,19.60,1040.23,667.96,667.89,0.15,-0.01,1.02,15.13,-5.69,-0.45,5.60,-46.49,-59.80,21.48
38274,19.60,1040.23,667.96,667.91,0.15,-0.01,1.02,23.17,-26.77,-2.52,6.25,-48.27,-59.88,20.51
38306,19.60,1040.23,667.96,667.92,0.13,-0.01,1.03,27.87,-51.08,-6.64,7.03,-50.73,-60.09,21.00
38338,19.60,1040.22,667.99,667.93,0.08,-0.02,1.05,29.74,-77.93,-11.54,7.85,-53.95,-60.46,20.51
38369,19.60,1040.22,667.99,667.95,0.02,-0.00,1.06,29.19,-101.54,-12.96,8.63,-57.67,-60.86,20.51
38403,19.60,1040.22,667.99,667.96,-0.05,0.01,1.09,29.13,-121.08,-9.46,9.49,-62.19,-61.18,21.00
38435,19.60,1040.24,667.88,667.94,-0.15,0.02,1.13,29.03,-135.43,-4.24,10.27,-66.74,-61.32,21.00
38466,19.60,1040.24,667.88,667.93,-0.22,0.02,1.16,27.19,-147.64,-2.27,10.96,-71.37,-61.39,20.51
38497,19.60,1040.24,667.88,667.92,-0.26,0.03,1.17,22.07,-154.73,-0.68,11.49,-76.10,-61.41,20.51
38529,19.60,1040.20,668.16,667.97,-0.28,0.05,1.18,15.11,-157.14,6.90,11.82,-80.93,-61.19,21.00
38561,19.60,1040.20,668.16,668.01,-0.30,0.04,1.19,6.47,-157.58,14.64,11.87,-85.66,-60.72,21.00
38594,19.60,1040.20,668.16,668.04,-0.31,0.04,1.20,-4.28,-156.42,17.27,11.58,-90.41,-60.15,20.51
38625,19.60,1040.25,667.74,667.98,-0.27,0.03,1.19,-13.94,-153.69,15.13,11.00,-94.71,-59.68,20.02
38657,19.60,1040.25,667.74,667.93,-0.24,0.04,1.16,-19.71,-147.34,17.80,10.24,-98.90,-59.11,21.00
38689,19.60,1040.25,667.74,667.89,-0.20,0.02,1.15,-22.35,-136.35,17.27,9.40,-102.69,-58.56,21.00
38720,19.60,1040.23,667.97,667.91,-0.13,0.01,1.12,-22.92,-122.44,11.27,8.55,-106.04,-58.20,20.51
38754,19.60,1040.23,667.97,667.92,-0.08,0.01,1.08,-19.85,-106.54,6.28,7.80,-108.98,-57.99,20.51
38786,19.60,1040.23,667.97,667.93,-0.02,-0.00,1.06,-13.47,-92.93,5.82,7.27,-111.39,-57.81,20.02
38818,19.60,1040.22,667.99,667.94,0.04,-0.00,1.04,-6.03,-79.37,3.99,6.97,-113.38,-57.68,21.00
38850,19.60,1040.22,667.99,667.95,0.12,-0.01,1.00,0.73,-62.58,-1.60,6.89,-114.91,-57.73,21.00
38881,19.60,1040.22,667.99,667.96,0.18,-0.02,0.97,7.40,-41.12,-8.01,7.01,-115.76,-57.98,21.00
38915,19.60,1040.22,668.03,667.97,0.22,-0.02,0.95,14.35,-15.75,-12.62,7.37,-115.93,-58.41,21.48
38947,19.60,1040.22,668.03,667.99,0.22,-0.01,0.96,19.58,8.33,-14.33,7.88,-115.30,-58.87,20.51
38978,19.60,1040.22,668.03,668.00,0.20,0.00,0.97,22.49,30.30,-13.98,8.45,-114.00,-59.30,21.48
39009,19.60,1040.23,667.97,667.99,0.15,0.00,0.99,23.78,50.69,-11.95,9.05,-112.05,-59.67,21.48
39041,19.60,1040.23,667.97,667.99,0.10,-0.00,1.02,21.00,69.58,-14.81,9.58,-109.43,-60.14,20.51
39073,19.60,1040.23,667.97,667.98,0.04,0.01,1.05,13.98,86.62,-20.70,9.89,-106.27,-60.81,20.51
39106,19.60,1040.23,667.99,667.98,-0.03,0.03,1.07,6.45,102.57,-18.44,9.97,-102.49,-61.42,21.00
39137,19.60,1040.22,667.99,667.99,-0.10,0.03,1.11,-0.29,119.58,-10.74,9.85,-98.40,-61.75,21.00
39169,19.60,1040.22,667.99,667.99,-0.16,0.02,1.15,-7.53,133.64,-6.41,9.49,-93.77,-61.95,20.51
39201,19.60,1040.22,667.99,667.99,-0.22,0.03,1.16,-14.29,145.78,-6.21,8.92,-88.81,-62.15,21.00
39232,19.60,1040.23,667.95,667.98,-0.26,0.03,1.19,-17.35,153.65,-2.49,8.28,-83.66,-62.23,20.51
39266,19.60,1040.23,667.95,667.98,-0.29,0.04,1.20,-18.51,156.89,3.10,7.59,-78.34,-62.13,21.48
39298,19.60,1040.23,667.95,667.97,-0.28,0.03,1.20,-18.60,157.17,7.26,6.93,-73.27,-61.90,21.48
39330,19.60,1040.24,667.84,667.95,-0.28,0.03,1.19,-17.96,154.26,8.97,6.30,-68.40,-61.61,21.48
39362,19.60,1040.24,667.84,667.92,-0.24,0.02,1.18,-16.86,148.69,10.08,5.72,-63.84,-61.29,21.00
39393,19.60,1040.24,667.84,667.91,-0.19,0.03,1.16,-12.32,139.27,14.45,5.31,-59.84,-60.84,21.48
39427,19.60,1040.24,667.89,667.91,-0.13,0.01,1.14,-2.86,126.07,20.95,5.16,-56.00,-60.13,20.51
39459,19.60,1040.24,667.89,667.90,-0.05,-0.02,1.11,5.14,108.74,16.43,5.25,-53.12,-59.60,21.00
39490,19.60,1040.24,667.89,667.90,0.00,-0.01,1.08,10.59,89.96,4.68,5.51,-51.02,-59.46,20.51
39521,19.60,1040.25,667.77,667.88,0.06,-0.01,1.06,17.63,69.76,-2.73,5.97,-49.64,-59.54,20.51
39553,19.60,1040.25,667.77,667.86,0.09,-0.01,1.05,25.54,49.58,-1.58,6.69,-48.88,-59.59,21.00
39585,19.60,1040.25,667.77,667.84,0.11,-0.00,1.04,30.20,29.10,-1.55,7.55,-48.82,-59.64,21.00
39618,19.60,1040.25,667.77,667.82,0.14,-0.01,1.02,29.81,7.68,-7.43,8.40,-49.44,-59.89,21.00
39649,19.60,1040.25,667.77,667.81,0.14,-0.00,1.03,25.83,-14.56,-11.23,9.06,-50.75,-60.24,21.48
39681,19.60,1040.25,667.77,667.80,0.13,0.01,1.03,20.88,-39.28,-7.86,9.59,-52.80,-60.49,21.00
39713,19.60,1040.24,667.87,667.82,0.10,0.00,1.04,15.69,-62.68,-1.97,9.94,-55.51,-60.55,20.51
39744,19.60,1040.24,667.87,667.83,0.05,0.00,1.05,9.80,-82.99,-1.54,10.10,-58.75,-60.60,21.00
39778,19.60,1040.24,667.87,667.84,-0.02,0.01,1.08,2.53,-100.91,-2.23,10.04,-62.51,-60.67,21.48
39810,19.60,1040.24,667.85,667.84,-0.08,0.02,1.10,-2.42,-114.94,-1.20,9.83,-66.48,-60.71,21.00
39842,19.60,1040.24,667.85,667.84,-0.14,0.02,1.13,-4.89,-126.32,2.48,9.55,-70.66,-60.63,20.51
39874,19.60,1040.24,667.85,667.84,-0.20,0.02,1.16,-6.63,-136.15,4.60,9.22,-75.02,-60.48,21.00
39905,19.60,1040.24,667.82,667.84,-0.24,0.02,1.17,-8.49,-144.73,3.47,8.84,-79.39,-60.38,20.51
39937,19.60,1040.24,667.82,667.83,-0.26,0.02,1.18,-9.45,-148.77,0.66,8.44,-83.91,-60.36,21.00
39971,19.60,1040.24,667.82,667.83,-0.26,0.02,1.18,-8.46,-148.29,-0.97,8.06,-88.62,-60.39,21.00
40002,19.60,1040.26,667.71,667.81,-0.25,0.02,1.17,-5.67,-145.22,-1.23,7.79,-92.71,-60.43,21.48
40033,19.60,1040.26,667.71,667.79,-0.23,0.02,1.16,-2.63,-140.24,-2.74,7.62,-96.59,-60.51,20.02
40065,19.60,1040.26,667.71,667.77,-0.19,0.01,1.14,0.38,-134.01,-4.78,7.54,-100.37,-60.66,21.00
40097,19.60,1040.24,667.88,667.79,-0.15,0.02,1.13,4.16,-126.71,-4.71,7.59,-103.87,-60.82,20.51
40130,19.60,1040.24,667.88,667.81,-0.10,0.01,1.11,8.32,-115.02,-1.90,7.76,-107.11,-60.88,21.48
40161,19.60,1040.24,667.88,667.82,-0.03,0.01,1.07,11.26,-100.71,-0.91,8.01,-109.70,-60.91,20.51
40194,19.60,1040.24,667.89,667.84,0.03,0.01,1.05,11.74,-82.21,-3.28,8.28,-111.89,-61.02,20.02
40226,19.60,1040.24,667.89,667.85,0.11,0.00,1.01,11.51,-62.64,-3.86,8.53,-113.43,-61.14,21.00
40258,19.60,1040.24,667.89,667.86,0.14,0.00,0.98,10.71,-42.73,-2.65,8.75,-114.36,-61.22,21.48
40291,19.60,1040.23,667.93,667.87,0.17,0.01,0.98,8.91,-22.16,-1.66,8.91,-114.69,-61.28,21.00
40323,19.60,1040.23,667.93,667.88,0.18,-0.00,0.97,6.38,-2.48,-1.75,8.98,-114.38,-61.33,20.51
40355,19.60,1040.23,667.93,667.89,0.17,0.00,0.97,3.34,17.93,-1.83,8.96,-113.43,-61.39,21.48
40386,19.60,1040.23,667.96,667.90,0.16,0.01,0.99,1.14,39.65,0.97,8.87,-111.83,-61.36,21.00
40417,19.60,1040.23,667.96,667.92,0.12,0.00,1.02,-1.27,62.05,2.14,8.71,-109.53,-61.30,21.48
40449,19.60,1040.23,667.96,667.93,0.07,0.00,1.04,-4.05,80.28,1.03,8.46,-106.59,-61.26,21.48
40483,19.60,1040.22,668.00,667.94,0.00,0.01,1.06,-6.42,93.33,-0.26,8.13,-103.05,-61.27,21.00
40514,19.60,1040.22,668.00,667.95,-0.06,0.02,1.09,-6.43,105.29,1.15,7.84,-99.42,-61.24,21.00
40545,19.60,1040.22,668.00,667.96,-0.11,0.02,1.12,-4.84,118.78,3.68,7.60,-95.40,-61.12,21.00
40577,19.60,1040.24,667.84,667.94,-0.17,0.02,1.14,-4.02,132.65,3.29,7.39,-90.86,-61.02,21.00
40609,19.60,1040.24,667.84,667.92,-0.22,0.01,1.17,-3.45,143.06,1.73,7.19,-86.04,-60.96,21.00
40642,19.60,1040.24,667.84,667.90,-0.24,0.02,1.17,-2.02,147.03,3.04,7.05,-81.02,-60.86,21.00
40673,19.60,1040.21,668.06,667.94,-0.25,0.02,1.19,-0.13,144.42,6.93,6.98,-76.48,-60.65,21.48
40705,19.60,1040.21,668.06,667.96,-0.26,0.02,1.20,0.79,140.30,6.75,6.93,-72.00,-60.43,21.00
40737,19.60,1040.21,668.06,667.98,-0.22,0.02,1.17,1.69,137.17,5.88,6.91,-67.74,-60.24,21.00
40768,19.60,1040.23,667.92,667.97,-0.19,0.02,1.16,4.38,134.08,6.16,6.97,-63.69,-60.05,20.51
40800,19.60,1040.23,667.92,667.96,-0.14,0.01,1.13,7.37,127.06,5.87,7.11,-60.11,-59.86,21.00
40834,19.60,1040.23,667.92,667.95,-0.08,0.00,1.12,9.69,112.04,0.63,7.35,-56.79,-59.84,20.02
40866,19.60,1040.23,667.95,667.95,-0.03,0.01,1.11,12.32,92.69,-2.01,7.64,-54.41,-59.91,20.51
40898,19.60,1040.23,667.95,667.95,0.04,0.01,1.07,15.58,71.94,-0.47,8.03,-52.80,-59.92,20.51
40929,19.60,1040.23,667.95,667.95,0.08,-0.01,1.05,17.31,53.17,-2.03,8.43,-51.90,-59.98,21.00
40961,19.60,1040.23,667.90,667.94,0.11,-0.01,1.03,16.39,36.20,-8.00,8.82,-51.55,-60.24,21.00
40995,19.60,1040.23,667.90,667.94,0.12,-0.01,1.03,13.84,17.58,-11.81,9.14,-51.77,-60.64,20.02
41026,19.60,1040.23,667.90,667.93,0.13,0.00,1.02,11.89,-3.37,-8.85,9.37,-52.67,-60.92,21.00
41057,19.60,1040.22,668.02,667.95,0.13,0.00,1.03,8.94,-28.29,-4.24,9.50,-54.31,-61.05,19.53
41089,19.60,1040.22,668.02,667.96,0.09,0.00,1.05,4.47,-53.69,-4.10,9.50,-56.70,-61.18,21.00
41121,19.60,1040.22,668.02,667.97,0.07,0.00,1.05,0.47,-76.48,-6.42,9.38,-59.73,-61.38,20.51
41152,19.60,1040.21,668.11,668.00,0.00,0.01,1.07,-1.74,-92.10,-7.02,9.20,-63.12,-61.61,21.00
41186,19.60,1040.21,668.11,668.02,-0.06,0.02,1.09,-1.48,-103.51,-2.52,9.04,-66.84,-61.69,21.00
41218,19.60,1040.21,668.11,668.04,-0.11,0.01,1.11,-0.42,-113.43,-0.78,8.90,-70.64,-61.72,21.48
41250,19.60,1040.23,667.90,668.01,-0.14,0.00,1.13,0.39,-125.09,-5.28,8.78,-74.70,-61.89,20.51
41282,19.60,1040.23,667.90,667.99,-0.21,0.02,1.16,1.55,-137.12,-10.04,8.72,-79.00,-62.21,21.48
41313,19.60,1040.23,667.90,667.97,-0.23,0.02,1.16,4.52,-144.22,-7.86,8.75,-83.27,-62.45,21.00
41347,19.60,1040.25,667.77,667.93,-0.24,0.02,1.17,8.52,-144.45,-1.46,8.93,-87.89,-62.50,21.00
41379,19.60,1040.25,667.77,667.90,-0.23,0.02,1.16,10.35,-140.61,-0.52,9.15,-92.01,-62.52,21.48
41410,19.60,1040.25,667.77,667.87,-0.20,0.02,1.16,10.20,-135.87,-2.96,9.34,-95.79,-62.61,20.51
41441,19.60,1040.24,667.84,667.87,-0.19,0.02,1.15,9.72,-130.03,-2.68,9.51,-99.34,-62.69,21.00
41473,19.60,1040.24,667.84,667.86,-0.14,0.02,1.12,10.24,-122.90,1.77,9.71,-102.76,-62.64,20.51
41507,19.60,1040.24,667.84,667.86,-0.08,0.02,1.10,10.15,-111.46,6.54,9.92,-106.03,-62.41,20.51
41538,19.60,1040.24,667.88,667.86,-0.03,0.01,1.08,8.03,-98.79,6.14,10.02,-108.58,-62.22,21.00
41569,19.60,1040.24,667.88,667.86,0.03,0.01,1.06,4.96,-81.75,4.61,10.03,-110.62,-62.08,20.02
41601,19.60,1040.24,667.88,667.87,0.08,0.00,1.03,2.82,-62.33,6.46,9.97,-112.14,-61.87,21.00
