Time(ms),Temp(C),Pressure(hPa),Alt(m),FiltAlt(m),AccX(g),AccY(g),AccZ(g),GyroX(deg/s),GyroY(deg/s),GyroZ(deg/s),AngleX(deg),AngleY(deg),AngleZ(deg),LM35Temp(C)
0,23.02,1013.57,0.28,0.06,0.02,0.05,0.98,-5.59,0.25,-4.68,-9.02,0.31,-7.98,22.46
31,23.02,1013.57,0.28,0.1,0.03,0.05,0.98,-5.24,2.63,-4.85,-8.69,0.27,-8.13,23.93
62,23.02,1013.55,0.43,0.17,0.02,0.05,0.99,-5.12,2.43,-4.62,-8.36,0.23,-8.27,24.9
93,23.02,1013.55,0.43,0.22,0.02,0.05,0.98,-5.51,1.07,-4.74,-8.04,0.15,-8.42,25.39
124,23.02,1013.55,0.43,0.26,0.03,0.05,0.99,-5.57,0.95,-4.83,-7.73,0.06,-8.57,24.9
156,23.04,1013.6,0.01,0.21,0.03,0.05,0.97,-5.5,1.21,-4.8,-7.42,-0.02,-8.72,23.93
187,23.04,1013.6,0.01,0.17,0.03,0.05,0.99,-5.09,2.03,-4.48,-7.11,-0.07,-8.86,24.41
217,23.04,1013.6,0.01,0.14,0.02,0.05,0.99,-5.47,1.42,-4.91,-6.81,-0.14,-9.01,24.9
247,23.03,1013.6,0.01,0.11,0.03,0.05,0.99,-5.59,0.57,-4.71,-6.52,-0.23,-9.15,24.9
279,23.03,1013.6,0.01,0.09,0.04,0.05,0.97,-5.06,2,-4.56,-6.23,-0.29,-9.3,24.9
310,23.03,1013.6,0.01,0.08,0.03,0.05,0.98,-4.87,4.25,-4.8,-5.94,-0.28,-9.44,24.9
342,23.03,1013.6,0.04,0.07,0.03,0.05,0.99,-4.9,4.14,-4.86,-5.66,-0.25,-9.6,24.9
372,23.03,1013.6,0.04,0.06,0.01,0.05,0.99,-4.89,2.78,-4.59,-5.38,-0.26,-9.74,24.9
404,23.03,1013.6,0.04,0.06,0.02,0.05,0.98,-5.3,1.26,-4.5,-5.12,-0.33,-9.88,23.93
435,23.03,1013.6,0.04,0.05,0.02,0.05,0.99,-5.22,2.66,-4.73,-4.86,-0.35,-10.03,24.41
466,23.03,1013.58,0.17,0.08,0.02,0.05,0.98,-5.28,2.02,-4.89,-4.61,-0.39,-10.18,24.9
497,23.03,1013.58,0.17,0.1,0.02,0.05,0.99,-5.27,0.84,-4.59,-4.36,-0.46,-10.32,23.93
531,23.03,1013.58,0.17,0.11,0.04,0.04,0.98,-5.42,1.91,-4.85,-4.15,-0.52,-10.49,24.9
563,23.02,1013.6,-0.01,0.09,0.02,0.06,0.99,-5.32,1.29,-4.53,-3.91,-0.57,-10.63,24.9
594,23.02,1013.6,-0.01,0.07,0.03,0.05,0.97,-5.38,1.55,-4.63,-3.68,-0.63,-10.78,24.9
625,23.02,1013.6,-0.01,0.05,0.01,0.05,0.98,-5.1,3.13,-4.88,-3.44,-0.62,-10.93,24.41
657,23.03,1013.6,0.01,0.05,0.02,0.05,0.99,-5.61,0.97,-4.74,-3.23,-0.69,-11.08,25.39
689,23.03,1013.6,0.01,0.04,0.04,0.06,0.98,-5.12,1.24,-4.53,-3,-0.76,-11.22,24.41
722,23.03,1013.6,0.01,0.03,0,0.08,0.98,-5.22,2.07,-4.73,-2.76,-0.76,-11.38,24.41
753,23.02,1013.61,-0.05,0.02,0.02,0.05,0.98,-5.38,0.22,-4.73,-2.55,-0.84,-11.53,24.9
785,23.02,1013.61,-0.05,0,0.03,0.05,0.99,-5.15,1.21,-4.91,-2.34,-0.9,-11.68,25.39
817,23.02,1013.61,-0.05,-0.01,0.02,0.05,0.98,-5.41,1.24,-4.77,-2.15,-0.96,-11.84,24.9
849,23.03,1013.57,0.25,0.05,0.02,0.04,0.97,-5.64,0.03,-4.98,-1.98,-1.04,-11.99,24.9
880,23.03,1013.57,0.25,0.09,0.04,0.07,0.98,-5.47,2.03,-5.27,-1.76,-1.09,-12.16,24.9
914,23.03,1013.57,0.25,0.12,0.03,0.06,0.97,-5.25,2.52,-4.85,-1.57,-1.1,-12.32,24.9
946,23.03,1013.6,0.06,0.11,0.02,0.05,0.98,-5.15,2.51,-4.98,-1.39,-1.1,-12.48,24.9
977,23.03,1013.6,0.06,0.1,0.02,0.05,0.98,-5.35,-0.22,-4.68,-1.2,-1.2,-12.63,25.39
1008,23.03,1013.6,0.06,0.09,0.04,0.05,0.98,-5.73,-0.26,-4.86,-1.03,-1.31,-12.78,24.9
1040,23.03,1013.59,0.08,0.09,0.03,0.05,0.98,-5.19,2,-4.95,-0.86,-1.34,-12.94,24.41
1074,23.03,1013.59,0.08,0.09,0.03,0.05,0.97,-5.28,0.95,-4.74,-0.7,-1.39,-13.1,24.9
1105,23.03,1013.59,0.08,0.08,0.02,0.05,0.98,-5.48,1.71,-4.92,-0.53,-1.42,-13.25,25.39
1136,23.03,1013.58,0.17,0.1,0.03,0.05,0.98,-5.22,2.05,-4.79,-0.36,-1.45,-13.4,24.41
1168,23.03,1013.58,0.17,0.12,0.02,0.05,0.98,-5.24,1.32,-4.88,-0.2,-1.49,-13.56,24.41
1200,23.03,1013.58,0.17,0.13,0.04,0.05,0.97,-5.07,1.76,-5,-0.04,-1.53,-13.72,25.39
1231,23.03,1013.59,0.13,0.13,0.02,0.05,1,-5.19,2.34,-4.82,0.11,-1.54,-13.87,25.39
1265,23.03,1013.59,0.13,0.13,0.03,0.05,0.98,-4.95,1.99,-4.66,0.27,-1.56,-14.02,25.39
1297,23.03,1013.59,0.13,0.13,0.02,0.05,0.98,-5.12,1.49,-4.54,0.42,-1.59,-14.17,24.9
1329,23.03,1013.58,0.24,0.15,0.02,0.05,0.98,-5.64,-0.01,-4.71,0.55,-1.66,-14.32,24.41
1361,23.03,1013.58,0.24,0.17,0.04,0.05,0.97,-5.09,2.14,-5.02,0.7,-1.68,-14.48,24.9
1392,23.03,1013.58,0.24,0.18,0.03,0.05,0.98,-5.19,3.04,-4.66,0.84,-1.67,-14.62,23.93
1424,23.03,1013.6,-0.01,0.15,0.03,0.04,0.99,-5.39,1.81,-4.88,0.97,-1.7,-14.78,24.41
1458,23.03,1013.6,-0.01,0.12,0.03,0.05,0.96,-4.95,3.64,-5.05,1.1,-1.67,-14.95,24.41
1489,23.03,1013.6,-0.01,0.09,0.02,0.05,0.98,-4.64,3.15,-4.97,1.26,-1.64,-15.11,24.41
1520,23.03,1013.61,-0.01,0.07,0.02,0.05,0.98,-5.16,1.81,-4.73,1.4,-1.66,-15.25,24.9
1552,23.03,1013.61,-0.01,0.05,0.03,0.05,0.98,-5.06,2.32,-4.63,1.53,-1.67,-15.4,24.9
1584,23.03,1013.61,-0.01,0.04,0.01,0.05,0.99,-5.18,2.32,-4.6,1.66,-1.66,-15.55,25.39
1615,23.04,1013.57,0.27,0.09,0.02,0.05,0.98,-5.57,0.97,-5,1.77,-1.7,-15.71,25.39
1649,23.04,1013.57,0.27,0.12,0.03,0.05,0.98,-5.38,2.08,-4.62,1.87,-1.72,-15.86,23.93
1681,23.04,1013.57,0.27,0.15,0.02,0.05,1,-5.1,2.87,-4.79,1.99,-1.7,-16.01,24.41
1713,23.03,1013.57,0.25,0.17,0.02,0.05,0.98,-5.41,1.35,-4.83,2.1,-1.73,-16.17,24.9
1745,23.03,1013.57,0.25,0.19,0.02,0.05,0.99,-5.38,0.25,-4.45,2.21,-1.8,-16.31,24.9
1776,23.03,1013.57,0.25,0.2,0.02,0.05,0.99,-5.35,0.66,-4.63,2.32,-1.85,-16.45,24.9
1808,23.04,1013.59,0.16,0.19,0.03,0.05,0.98,-5.79,-0.01,-4.73,2.41,-1.94,-16.61,25.39
1842,23.04,1013.59,0.16,0.18,0.02,0.05,0.98,-5.3,1.03,-4.66,2.5,-1.97,-16.76,24.9
1873,23.04,1013.59,0.16,0.18,0.02,0.06,0.98,-5.44,0.2,-4.88,2.61,-2.03,-16.92,24.41
1904,23.03,1013.56,0.33,0.21,0.04,0.05,0.98,-6,-0.07,-4.82,2.7,-2.12,-17.06,24.9
1936,23.03,1013.56,0.33,0.23,0.04,0.05,0.98,-5.04,3.93,-4.79,2.81,-2.08,-17.22,24.9
1968,23.03,1013.56,0.33,0.25,0.02,0.04,0.99,-4.4,4.49,-5.14,2.92,-2.01,-17.38,24.9
1999,23.04,1013.62,-0.1,0.18,0.01,0.05,0.98,-5.21,1.45,-4.86,3.02,-2.02,-17.54,23.93
2033,23.04,1013.62,-0.1,0.13,0.02,0.05,0.98,-5.73,-0.56,-4.68,3.09,-2.1,-17.69,24.9
2065,23.04,1013.62,-0.1,0.08,0.03,0.05,0.97,-5.88,-0.8,-4.65,3.17,-2.2,-17.84,25.39
2097,23.04,1013.59,0.14,0.09,0.04,0.05,0.98,-5.42,1.18,-4.74,3.25,-2.25,-17.99,24.41
2129,23.04,1013.59,0.14,0.1,0.03,0.05,0.99,-5.35,2.75,-4.71,3.34,-2.24,-18.14,24.41
2159,23.04,1013.59,0.14,0.11,0.03,0.05,0.98,-4.93,3.3,-5.09,3.44,-2.22,-18.3,24.41
2191,23.04,1013.57,0.3,0.15,0.03,0.05,0.98,-4.61,4.05,-5.09,3.54,-2.17,-18.46,24.9
2225,23.04,1013.57,0.3,0.18,0.01,0.05,0.98,-4.9,3.13,-5.11,3.63,-2.11,-18.63,24.9
2257,23.04,1013.57,0.3,0.2,0.01,0.06,0.99,-5.56,0.02,-5.14,3.71,-2.16,-18.8,23.93
2288,23.04,1013.57,0.29,0.22,0.02,0.04,0.98,-5.57,-0.8,-5.24,3.78,-2.25,-18.96,24.41
2320,23.04,1013.57,0.29,0.23,0.03,0.04,1.01,-5.86,-1.48,-4.36,3.83,-2.37,-19.1,24.9
2352,23.04,1013.57,0.29,0.25,-0.01,0.05,1.03,-5.22,1.1,-1.02,3.9,-2.36,-19.13,24.41
2383,23.04,1013.58,0.18,0.23,0.05,0.05,0.96,-5.22,2.28,-1.02,3.98,-2.38,-19.16,24.41
2417,23.04,1013.58,0.18,0.22,0.03,0.05,0.97,-4.41,3.99,-3.75,4.07,-2.32,-19.29,24.41
2449,23.04,1013.58,0.18,0.22,0.01,0.05,0.98,-4.61,3.13,-5.15,4.17,-2.27,-19.45,25.39
2481,23.04,1013.57,0.25,0.22,0.02,0.03,0.98,-4.95,2.03,-10.94,4.22,-2.26,-19.8,24.9
2513,23.04,1013.57,0.25,0.23,0.01,0.07,0.99,-5.35,2.94,-5.87,4.3,-2.23,-19.99,25.39
2544,23.04,1013.57,0.25,0.23,0.02,0.05,1,-5.71,0.66,-4.33,4.36,-2.26,-20.13,24.41
2576,23.04,1013.58,0.22,0.23,0.04,0.05,0.99,-5.42,0.91,-4.44,4.41,-2.32,-20.27,24.41
2610,23.04,1013.58,0.22,0.23,0.03,0.05,0.99,-5.19,3.45,-4.95,4.47,-2.27,-20.44,24.9
2641,23.04,1013.58,0.22,0.23,0.01,0.06,0.99,-5.1,0.83,-4.94,4.55,-2.3,-20.59,24.41
2672,23.05,1013.56,0.37,0.26,0.03,0.05,0.99,-5.32,0.68,-4.88,4.61,-2.35,-20.74,24.41
2704,23.05,1013.56,0.37,0.28,0.02,0.05,1,-5.06,2.31,-4.89,4.68,-2.34,-20.9,24.9
2736,23.05,1013.56,0.37,0.3,0.02,0.05,1.01,-5.19,2.55,-5.21,4.75,-2.31,-21.06,24.9
2767,23.05,1013.58,0.16,0.27,0.02,0.05,1,-5.27,1.97,-4.73,4.8,-2.31,-21.21,24.41
2801,23.05,1013.58,0.16,0.25,0.01,0.05,1,-5.64,1.65,-4.73,4.84,-2.31,-21.37,24.9
2833,23.05,1013.58,0.16,0.23,0.03,0.05,0.99,-5.33,1.49,-4.77,4.89,-2.33,-21.52,24.9
2865,23.05,1013.57,0.27,0.24,0.01,0.05,1,-4.98,2.6,-4.79,4.95,-2.3,-21.68,24.9
2897,23.05,1013.57,0.27,0.24,0.02,0.05,1.01,-5.25,0.45,-4.66,5,-2.35,-21.83,24.41
2928,23.05,1013.57,0.27,0.25,0.03,0.05,1.01,-4.99,1.58,-4.92,5.06,-2.36,-21.98,24.41
2960,23.05,1013.6,0.07,0.21,0.02,0.05,1,-5.33,1.62,-4.8,5.12,-2.37,-22.13,24.41
2994,23.05,1013.6,0.07,0.18,0.03,0.06,1.01,-5.22,1.3,-4.65,5.16,-2.39,-22.29,24.9
3025,23.05,1013.6,0.07,0.16,0.02,0.06,0.97,-5.15,3.5,-5.05,5.23,-2.34,-22.45,24.9
3056,23.05,1013.59,0.15,0.16,0.02,0.05,1.01,-5.06,2.55,-5.11,5.29,-2.32,-22.6,24.9
3088,23.05,1013.59,0.15,0.16,0.01,0.05,1,-5.18,1.76,-5.11,5.34,-2.32,-22.77,24.41
3120,23.05,1013.59,0.15,0.16,0.03,0.05,1.01,-5.3,0.78,-4.47,5.38,-2.36,-22.91,24.41
3151,23.05,1013.58,0.19,0.16,0.02,0.05,1.02,-5.54,0.97,-4.19,5.41,-2.39,-23.05,24.9
3185,23.05,1013.58,0.19,0.17,0.01,0.05,1.03,-5.1,0.42,-4.45,5.45,-2.43,-23.19,24.41
3217,23.05,1013.58,0.19,0.17,0.03,0.05,1.03,-5.35,1.45,-4.73,5.49,-2.44,-23.34,24.9
3249,23.05,1013.59,0.09,0.16,0.02,0.05,1.01,-5.16,2.39,-5.29,5.54,-2.43,-23.51,24.9
3281,23.05,1013.59,0.09,0.14,0.01,0.05,1.03,-5.47,1.81,-4.95,5.58,-2.42,-23.67,24.9
3312,23.05,1013.59,0.09,0.13,0.02,0.05,1.02,-5.27,0.89,-4.54,5.62,-2.44,-23.81,24.41
3344,23.05,1013.57,0.32,0.17,0.03,0.05,1.02,-5.07,0.97,-4.62,5.66,-2.48,-23.96,24.9
3378,23.05,1013.57,0.32,0.2,0.02,0.03,1.02,-5.03,1.78,-4.89,5.68,-2.48,-24.13,24.41
3409,23.05,1013.57,0.32,0.22,0.02,0.05,1.03,-5.32,1.29,-4.85,5.71,-2.5,-24.28,24.9
3440,23.06,1013.57,0.26,0.23,0.02,0.05,1.04,-5.39,1.55,-4.88,5.75,-2.51,-24.43,24.9
3472,23.06,1013.57,0.26,0.24,0.02,0.05,1.02,-5.12,1.73,-4.8,5.79,-2.51,-24.58,24.41
3504,23.06,1013.57,0.26,0.24,0.02,0.05,1.02,-5.36,2.14,-5.03,5.82,-2.5,-24.74,23.93
3535,23.05,1013.58,0.18,0.23,0.02,0.05,1.03,-5.27,2.37,-5,5.86,-2.48,-24.9,25.39
3569,23.05,1013.58,0.18,0.22,0.02,0.05,1.03,-5.42,1.61,-4.92,5.88,-2.48,-25.06,24.41
3601,23.05,1013.58,0.18,0.21,0.03,0.05,1.03,-5.42,1.58,-4.8,5.9,-2.5,-25.22,24.9
3633,23.05,1013.56,0.39,0.25,0.02,0.05,1.04,-5.13,1.65,-4.66,5.94,-2.5,-25.37,24.9
3665,23.05,1013.56,0.39,0.28,0.02,0.05,1.03,-5.24,0.68,-4.45,5.97,-2.54,-25.51,23.93
3696,23.05,1013.56,0.39,0.3,0.03,0.05,1.03,-5.27,0.98,-4.8,6,-2.57,-25.66,23.93
3728,23.06,1013.54,0.57,0.35,0.01,0.06,1.02,-5.32,1.88,-4.97,6.04,-2.56,-25.82,24.41
3762,23.06,1013.54,0.57,0.4,0.01,0.06,1.03,-5.28,0.95,-4.79,6.06,-2.58,-25.98,24.41
3793,23.06,1013.54,0.57,0.43,0.01,0.05,1.03,-5.48,2.08,-4.79,6.09,-2.56,-26.13,24.41
3824,23.06,1013.56,0.37,0.42,0.02,0.05,1.04,-5.28,2.25,-4.68,6.12,-2.54,-26.27,24.9
3856,23.06,1013.56,0.37,0.41,0.03,0.05,1.02,-5.03,2.17,-4.92,6.15,-2.54,-26.43,24.41
3888,23.06,1013.56,0.37,0.4,0.02,0.05,1.03,-4.95,1.99,-4.95,6.19,-2.53,-26.59,23.93
3919,23.06,1013.56,0.34,0.39,0.02,0.06,1.03,-5.19,0.69,-4.73,6.22,-2.56,-26.74,24.9
3953,23.06,1013.56,0.34,0.38,0.02,0.05,1.02,-5.06,2.26,-4.68,6.25,-2.54,-26.9,25.39
3985,23.06,1013.56,0.34,0.37,0.01,0.05,1.03,-5.15,2.07,-4.92,6.28,-2.52,-27.05,24.41
4017,23.06,1013.55,0.46,0.39,0.02,0.05,1.03,-5.28,0.92,-4.71,6.31,-2.54,-27.2,24.41
4049,23.06,1013.55,0.46,0.4,0.02,0.05,1.03,-5.47,1.55,-4.92,6.32,-2.55,-27.36,24.9
4080,23.06,1013.55,0.46,0.42,0.01,0.05,1.03,-5.24,2.31,-4.86,6.35,-2.53,-27.51,24.9
4114,23.06,1013.53,0.59,0.45,0.02,0.05,1.04,-5.39,1.26,-4.76,6.36,-2.54,-27.67,25.39
4146,23.06,1013.53,0.59,0.48,0.02,0.05,1.03,-5.51,1.62,-4.73,6.37,-2.54,-27.83,25.39
4177,23.06,1013.53,0.59,0.5,0.02,0.05,1.03,-5.16,1.41,-4.74,6.4,-2.55,-27.97,24.9
4208,23.06,1013.53,0.61,0.52,0.02,0.05,1.02,-5.3,0.97,-4.82,6.42,-2.58,-28.12,25.39
4240,23.06,1013.52,0.68,0.55,0.02,0.05,1.02,-5.47,0.87,-4.76,6.44,-2.6,-28.27,24.41
4272,23.06,1013.52,0.68,0.58,0.02,0.05,1.03,-5.35,1.32,-4.82,6.46,-2.61,-28.43,23.93
4305,23.06,1013.52,0.68,0.6,0.02,0.05,1.02,-5.48,1.06,-4.8,6.47,-2.63,-28.59,25.39
4336,23.07,1013.53,0.62,0.6,0.02,0.06,1.03,-5.44,1.71,-4.76,6.5,-2.63,-28.73,24.9
4368,23.07,1013.53,0.62,0.61,0.02,0.06,1.03,-5.41,1.94,-4.88,6.52,-2.61,-28.89,24.9
4400,23.07,1013.53,0.62,0.61,0.02,0.05,1.03,-5.21,1.36,-4.79,6.53,-2.63,-29.04,24.9
4431,23.06,1013.51,0.75,0.64,0.01,0.04,1.02,-5.22,1.32,-4.94,6.55,-2.63,-29.2,24.9
4463,23.06,1013.51,0.75,0.66,0.02,0.05,1.01,-5.1,0.83,-4.77,6.58,-2.66,-29.35,23.93
4497,23.06,1013.51,0.75,0.68,0.02,0.05,1.01,-4.95,2.66,-4.88,6.6,-2.62,-29.51,24.9
4529,23.06,1013.49,0.92,0.73,0.03,0.06,0.99,-5.19,1.76,-4.97,6.63,-2.63,-29.67,25.39
4561,23.06,1013.49,0.92,0.77,0.02,0.05,0.99,-5.33,1.74,-4.95,6.65,-2.63,-29.83,24.41
4592,23.06,1013.49,0.92,0.8,0.02,0.07,1,-5.33,0.37,-8.68,6.69,-2.67,-30.1,24.9
4624,23.06,1013.5,0.88,0.81,0.01,0.04,0.98,-5.32,1.97,-6.73,6.7,-2.65,-30.32,24.9
4656,23.06,1013.5,0.88,0.82,0,0.05,1.01,-5.21,2.75,-5.03,6.72,-2.59,-30.48,24.9
4689,23.06,1013.5,0.88,0.83,0.03,0.05,1,-5.44,1.36,-4.5,6.73,-2.61,-30.63,24.41
4720,23.06,1013.5,0.86,0.84,0.03,0.04,0.98,-5.06,1.45,-4.63,6.75,-2.63,-30.77,24.41
4751,23.06,1013.5,0.86,0.84,0.02,0.05,0.96,-5.16,2.14,-4.82,6.78,-2.62,-30.92,24.41
4782,23.06,1013.5,0.86,0.85,0.01,0.11,0.97,-5.57,-1.8,-6.54,6.86,-2.72,-31.12,25.39
4813,23.06,1013.46,1.21,0.92,0.01,0.06,0.98,-4.98,1.73,-5.31,6.9,-2.71,-31.29,24.41
4845,23.06,1013.46,1.21,0.98,0,0.05,0.99,-5.06,0.81,-2.79,6.93,-2.72,-31.38,23.93
4879,23.06,1013.46,1.21,1.02,0.01,0.05,0.99,-5.28,1.5,-3.44,6.93,-2.71,-31.49,24.9
4910,23.07,1013.49,0.97,1.01,0.02,0.05,0.98,-5.45,0.98,-4.37,6.94,-2.73,-31.63,23.93
4941,23.07,1013.49,0.97,1,0.02,0.05,0.97,-5.44,1.56,-4.91,6.96,-2.73,-31.78,24.41
4973,23.07,1013.49,0.97,1,0.02,0.05,0.98,-5.32,1.49,-4.95,6.96,-2.74,-31.94,24.9
5005,23.07,1013.46,1.18,1.03,0.01,0.04,0.99,-5.48,0.87,-4.79,6.96,-2.76,-32.09,24.41
5036,23.07,1013.46,1.18,1.06,0.02,0.06,0.99,-5.33,0.84,-3.92,7,-2.78,-32.21,24.9
5069,23.07,1013.46,1.18,1.09,0.02,0.05,0.97,-5.18,1.44,-1.96,7.01,-2.79,-32.28,24.9
5101,23.07,1013.47,1.15,1.1,0.02,0.04,0.98,-5.38,1.55,-2.82,7.01,-2.79,-32.37,24.9
5133,23.07,1013.47,1.15,1.11,0.01,0.05,0.97,-5.41,1.5,-4.76,7.02,-2.79,-32.52,24.41
5164,23.07,1013.47,1.15,1.12,0.02,0.05,0.99,-5.51,1.21,-4.97,7.02,-2.81,-32.67,24.41
5195,23.08,1013.45,1.29,1.15,0.03,0.05,0.98,-5.24,1.91,-4.76,7.04,-2.81,-32.82,24.9
5227,23.08,1013.45,1.29,1.18,0.01,0.04,0.99,-5.39,1.84,-4.5,7.05,-2.79,-32.97,23.93
5261,23.08,1013.45,1.29,1.2,0.01,0.05,0.99,-5.48,0.61,-4.74,7.04,-2.81,-33.13,24.9
5292,23.07,1013.42,1.54,1.27,0.03,0.05,0.98,-5.48,0.13,-3.17,7.05,-2.86,-33.23,24.9
5323,23.07,1013.42,1.54,1.33,0.03,0.05,0.98,-5.3,1.39,-4.45,7.06,-2.88,-33.36,23.93
5355,23.07,1013.42,1.54,1.37,0.02,0.05,0.99,-5.44,0.75,-4.69,7.07,-2.9,-33.51,24.9
5386,23.07,1013.44,1.39,1.37,0.02,0.05,0.97,-5.47,1.45,-4.86,7.08,-2.9,-33.66,24.9
5417,23.07,1013.44,1.39,1.38,0.02,0.05,0.98,-5.03,1.9,-4.68,7.1,-2.9,-33.81,24.9
5450,23.07,1013.44,1.39,1.38,0.02,0.05,0.98,-5.12,2.4,-4.71,7.11,-2.86,-33.96,24.41
5482,23.07,1013.4,1.66,1.44,0.02,0.05,0.97,-5.27,1.7,-4.85,7.12,-2.86,-34.12,24.9
5514,23.07,1013.4,1.66,1.48,0.02,0.05,0.99,-5.24,0.51,-4.86,7.14,-2.89,-34.28,24.9
5545,23.07,1013.4,1.66,1.52,0.03,0.05,0.98,-5.3,1.24,-4.94,7.15,-2.92,-34.43,24.9
5576,23.07,1013.43,1.47,1.51,0.03,0.05,0.99,-5.03,2.65,-5.17,7.17,-2.89,-34.59,24.9
5608,23.07,1013.43,1.47,1.5,0.02,0.05,1,-5.21,0.55,-4.66,7.18,-2.92,-34.74,25.39
5642,23.07,1013.43,1.47,1.49,0.03,0.07,0.99,-5.77,1.52,-5,7.19,-2.93,-34.91,24.9
5673,23.08,1013.43,1.47,1.49,0.02,0.06,0.99,-5.16,1.93,-4.8,7.21,-2.92,-35.06,24.41
5704,23.08,1013.43,1.47,1.49,0.02,0.05,0.97,-5.16,1.59,-4.88,7.22,-2.93,-35.21,23.93
5736,23.08,1013.43,1.47,1.48,0.03,0.05,0.97,-5.44,1.38,-4.82,7.23,-2.94,-35.36,24.41
5768,23.08,1013.4,1.72,1.53,0.02,0.04,0.98,-5.41,2.26,-4.86,7.22,-2.92,-35.52,24.9
5799,23.08,1013.4,1.72,1.57,0.02,0.04,0.98,-5.03,1.32,-4.8,7.23,-2.93,-35.67,24.9
5832,23.08,1013.4,1.72,1.6,0.03,0.06,0.99,-5.21,2.16,-4.94,7.24,-2.91,-35.83,24.9
5864,23.08,1013.4,1.71,1.62,0.02,0.05,0.97,-5.51,1.71,-4.76,7.25,-2.9,-35.98,24.9
5896,23.08,1013.4,1.71,1.64,0.02,0.05,0.98,-5.35,1.09,-4.79,7.25,-2.91,-36.13,24.9
5927,23.08,1013.4,1.71,1.65,0.02,0.06,0.98,-5.28,1.74,-4.91,7.27,-2.91,-36.29,24.41
5958,23.08,1013.39,1.81,1.68,0.02,0.05,0.98,-5.65,1.91,-4.83,7.28,-2.89,-36.44,25.39
5990,23.08,1013.39,1.81,1.71,0.02,0.05,0.99,-5.25,1.84,-4.92,7.28,-2.89,-36.59,24.41
6024,23.08,1013.39,1.81,1.73,0.02,0.05,0.98,-5.42,1.33,-4.8,7.28,-2.9,-36.76,24.9
6055,23.08,1013.4,1.72,1.73,0.03,0.05,0.98,-5.42,0.72,-4.74,7.29,-2.93,-36.9,24.9
6086,23.08,1013.4,1.72,1.73,0.02,0.06,0.97,-5.28,2.17,-4.94,7.3,-2.92,-37.06,24.41
6118,23.08,1013.4,1.72,1.73,0.02,0.05,0.98,-5.68,0.58,-4.62,7.3,-2.95,-37.21,24.41
6150,23.08,1013.39,1.82,1.74,0.02,0.05,0.98,-5.61,0.61,-4.89,7.3,-2.97,-37.36,24.41
6182,23.08,1013.39,1.82,1.76,0.03,0.05,0.98,-5.53,1.5,-4.63,7.3,-2.98,-37.51,24.9
6215,23.08,1013.39,1.82,1.77,0.02,0.06,0.98,-5.59,1.47,-4.74,7.3,-2.98,-37.67,23.93
6247,23.08,1013.36,2,1.82,0.02,0.05,0.98,-5.61,0.66,-5.03,7.29,-3.01,-37.83,23.93
6279,23.08,1013.36,2,1.85,0.03,0.05,0.97,-5.18,2.77,-4.88,7.3,-2.98,-37.98,24.41
6310,23.08,1013.36,2,1.88,0.02,0.05,0.99,-5.03,2.71,-4.88,7.31,-2.95,-38.14,24.9
6341,23.08,1013.33,2.26,1.96,0.03,0.05,0.98,-5.13,2.03,-4.83,7.33,-2.94,-38.28,23.93
6373,23.08,1013.33,2.26,2.02,0.02,0.05,0.98,-5.61,1.04,-4.94,7.33,-2.95,-38.44,24.41
6407,23.08,1013.33,2.26,2.07,0.03,0.05,0.98,-5.61,0.07,-4.71,7.31,-3.01,-38.6,24.9
6438,23.09,1013.31,2.43,2.14,0.03,0.06,0.98,-5.04,3.07,-4.79,7.34,-2.97,-38.75,24.41
6469,23.09,1013.31,2.43,2.2,0.01,0.05,0.99,-4.92,1.3,-4.85,7.37,-2.97,-38.9,24.9
6501,23.09,1013.31,2.43,2.24,0.02,0.05,0.98,-5.1,0.92,-4.66,7.37,-2.99,-39.05,24.9
6532,23.09,1013.33,2.25,2.25,0.02,0.05,0.98,-5.22,2.58,-4.82,7.38,-2.96,-39.2,24.41
6563,23.08,1013.33,2.25,2.25,0.02,0.05,0.98,-5.44,2.26,-4.94,7.38,-2.94,-39.36,24.9
6597,23.08,1013.33,2.25,2.25,0.03,0.05,0.99,-5.57,1.78,-4.69,7.37,-2.94,-39.51,23.44
6629,23.09,1013.32,2.37,2.27,0.03,0.05,0.98,-5.24,2.61,-4.65,7.37,-2.92,-39.66,24.9
6660,23.09,1013.32,2.37,2.29,0.02,0.05,0.99,-4.96,1.73,-5.02,7.39,-2.92,-39.82,24.9
6691,23.09,1013.32,2.37,2.31,0.02,0.05,0.99,-5.18,0.48,-4.73,7.4,-2.95,-39.97,24.9
6723,23.09,1013.32,2.37,2.32,0.03,0.05,0.98,-5.33,0.83,-4.66,7.41,-2.99,-40.11,23.93
6755,23.09,1013.31,2.41,2.34,0.02,0.05,0.98,-5.06,2,-5.02,7.42,-2.98,-40.27,24.9
6788,23.09,1013.31,2.41,2.35,0.03,0.06,0.98,-5.44,1.58,-4.86,7.42,-2.98,-40.43,24.9
6819,23.09,1013.31,2.41,2.37,0.02,0.04,0.98,-5.28,2.75,-4.59,7.42,-2.94,-40.58,23.44
6851,23.09,1013.32,2.33,2.36,0.01,0.05,0.99,-5.33,2.4,-5,7.42,-2.91,-40.74,24.9
6883,23.09,1013.32,2.33,2.35,0.02,0.05,0.97,-5.28,1.79,-4.92,7.43,-2.9,-40.89,24.9
6914,23.09,1013.32,2.33,2.35,0.02,0.05,0.98,-5.27,1.44,-4.79,7.44,-2.9,-41.04,23.93
6945,23.09,1013.3,2.52,2.38,0.03,0.04,0.98,-5.36,1.71,-4.88,7.43,-2.91,-41.19,24.9
6979,23.09,1013.3,2.52,2.41,0.01,0.05,0.98,-5.1,1.12,-4.73,7.43,-2.91,-41.35,23.93
7011,23.09,1013.3,2.52,2.43,0.02,0.05,0.98,-5.32,1.07,-4.71,7.44,-2.93,-41.5,23.93
7042,23.09,1013.3,2.54,2.45,0.02,0.05,0.99,-5.25,1.81,-4.88,7.45,-2.93,-41.66,24.41
7073,23.09,1013.3,2.54,2.47,0.03,0.04,0.97,-5.09,2.31,-5.18,7.46,-2.91,-41.82,24.41
7105,23.09,1013.3,2.54,2.48,0.02,0.05,0.99,-5.3,0.65,-4.69,7.46,-2.94,-41.97,24.9
7137,23.09,1013.27,2.79,2.55,0.02,0.05,0.98,-5.64,0.37,-4.6,7.45,-2.98,-42.11,24.41
7170,23.09,1013.27,2.79,2.59,0.02,0.05,0.97,-5.25,1.36,-4.54,7.44,-2.98,-42.26,24.41
7201,23.09,1013.27,2.79,2.63,0.02,0.06,0.98,-5.39,1.41,-4.62,7.45,-2.98,-42.41,23.93
7233,23.09,1013.26,2.82,2.67,0.02,0.05,0.98,-5.53,1.16,-4.63,7.45,-2.99,-42.56,25.39
7265,23.09,1013.26,2.82,2.7,0.03,0.05,0.97,-5.36,1.99,-4.95,7.45,-2.98,-42.71,24.9
7296,23.09,1013.26,2.82,2.72,0.02,0.06,0.96,-5.13,2.17,-4.83,7.47,-2.97,-42.86,23.93
7327,23.09,1013.27,2.77,2.73,0.02,0.05,0.97,-5.3,0.63,-4.91,7.48,-3,-43.02,24.9
7361,23.09,1013.27,2.77,2.74,0.03,0.05,0.98,-5.13,0.95,-4.69,7.47,-3.03,-43.18,25.39
7393,23.09,1013.27,2.77,2.75,0.02,0.05,0.98,-5.01,1.97,-4.6,7.48,-3.01,-43.32,25.39
7424,23.09,1013.27,2.79,2.76,0.02,0.05,0.98,-5.18,2.13,-4.83,7.49,-2.99,-43.47,24.41
7455,23.09,1013.27,2.79,2.76,0.02,0.05,0.98,-5.21,2.6,-4.91,7.5,-2.96,-43.62,24.9
7487,23.09,1013.27,2.79,2.77,0.01,0.06,0.98,-5.33,2.25,-4.91,7.51,-2.93,-43.78,24.9
7519,23.09,1013.27,2.81,2.78,0.02,0.06,0.98,-5.32,1.49,-4.74,7.52,-2.93,-43.93,24.9
7552,23.09,1013.27,2.81,2.78,0.03,0.05,0.99,-5.3,1.2,-4.47,7.52,-2.95,-44.08,24.9
7583,23.09,1013.27,2.81,2.79,0.01,0.05,0.99,-5.28,1.04,-4.62,7.53,-2.96,-44.22,24.9
7615,23.09,1013.25,2.92,2.81,0.01,0.05,0.99,-5.44,0.77,-4.77,7.53,-2.97,-44.38,24.9
7647,23.09,1013.25,2.92,2.83,0.02,0.05,0.98,-5.48,0.71,-4.89,7.52,-3,-44.53,23.44
7678,23.09,1013.25,2.92,2.85,0.02,0.05,0.98,-5.51,1.71,-5.08,7.53,-3,-44.69,24.9
7709,23.09,1013.25,2.95,2.87,0.01,0.05,0.99,-5.22,1.82,-4.85,7.54,-2.98,-44.84,24.9
7743,23.09,1013.25,2.95,2.89,0.02,0.05,0.98,-5.35,1.52,-4.79,7.52,-2.98,-45,24.9
7775,23.09,1013.25,2.95,2.9,0.02,0.05,0.98,-5.21,2.1,-4.65,7.53,-2.96,-45.15,25.39
7806,23.09,1013.21,3.25,2.97,0.02,0.05,0.98,-5.39,1.53,-4.83,7.53,-2.96,-45.3,24.9
7837,23.09,1013.21,3.25,3.03,0.02,0.05,0.98,-5.44,2,-4.8,7.53,-2.95,-45.45,24.9
7869,23.09,1013.21,3.25,3.07,0.02,0.05,0.99,-5.42,1.79,-4.91,7.53,-2.94,-45.61,24.9
7901,23.09,1013.23,3.14,3.09,0.02,0.05,0.98,-5.42,1.74,-4.92,7.53,-2.93,-45.77,24.9
7934,23.09,1013.23,3.14,3.1,0.02,0.06,0.96,-5.21,1.49,-4.82,7.54,-2.92,-45.92,24.41
7965,23.09,1013.23,3.14,3.11,0.04,0.05,0.98,-5.28,2.08,-4.83,7.55,-2.93,-46.07,23.93
7997,23.09,1013.19,3.43,3.17,0.02,0.05,0.99,-4.89,2.49,-4.6,7.56,-2.9,-46.22,24.9
8029,23.09,1013.19,3.43,3.22,0.01,0.05,0.99,-5.21,1.53,-4.83,7.56,-2.89,-46.38,23.93
8060,23.09,1013.19,3.43,3.26,0.03,0.05,0.98,-5.04,1.76,-5.06,7.57,-2.89,-46.53,24.41
8093,23.1,1013.2,3.4,3.29,0.02,0.05,0.99,-5.54,1.93,-4.65,7.56,-2.89,-46.69,24.9
8125,23.1,1013.2,3.4,3.31,0.02,0.05,0.99,-5.24,2.1,-4.79,7.56,-2.87,-46.84,24.9
8157,23.1,1013.2,3.4,3.33,0.02,0.06,0.97,-5.3,2.39,-4.76,7.57,-2.84,-46.99,24.41
8188,23.1,1013.17,3.59,3.38,0.01,0.05,0.98,-4.96,1.64,-4.77,7.59,-2.84,-47.14,25.39
8219,23.1,1013.17,3.59,3.42,0.02,0.05,0.97,-5.27,1,-4.86,7.6,-2.85,-47.29,24.9
8251,23.1,1013.17,3.59,3.45,0.03,0.05,0.99,-5.56,0.52,-4.89,7.59,-2.9,-47.45,24.41
8285,23.1,1013.19,3.47,3.46,0.02,0.05,0.99,-5.44,0,-4.56,7.57,-2.94,-47.6,24.41
8316,23.1,1013.19,3.47,3.46,0.03,0.05,0.98,-5.62,0.32,-4.62,7.56,-2.99,-47.75,25.39
8347,23.1,1013.19,3.47,3.46,0.04,0.05,0.97,-5.28,0.77,-4.89,7.57,-3.04,-47.9,24.41
8379,23.1,1013.2,3.35,3.44,0.03,0.05,0.97,-4.99,3.06,-4.5,7.58,-3,-48.04,23.93
8411,23.1,1013.2,3.35,3.42,0.01,0.05,0.98,-5.03,1.39,-4.86,7.59,-2.99,-48.2,24.41
8442,23.1,1013.2,3.35,3.41,0.03,0.05,0.97,-5.38,1.38,-4.79,7.58,-3.01,-48.35,24.41
8476,23.1,1013.17,3.61,3.45,0.03,0.05,0.98,-4.96,3.01,-3.95,7.59,-2.97,-48.48,24.9
8508,23.1,1013.17,3.61,3.48,0.03,0.06,0.98,-5.47,1.47,-4.82,7.6,-2.98,-48.63,24.41
8540,23.1,1013.17,3.61,3.51,0.02,0.05,0.98,-5.57,0.66,-4.6,7.6,-3.01,-48.78,24.41
8572,23.1,1013.18,3.52,3.51,0.03,0.05,0.97,-5.07,3.47,-4.39,7.6,-2.95,-48.92,24.41
8603,23.1,1013.18,3.52,3.51,0.01,0.05,0.98,-5.51,1.58,-4.62,7.6,-2.95,-49.07,24.9
8635,23.1,1013.18,3.52,3.51,0.02,0.03,0.98,-5.18,0.84,-2.07,7.58,-2.97,-49.13,24.9
8669,23.1,1013.16,3.68,3.55,0.03,0.05,0.97,-5.41,2.74,-4.02,7.57,-2.94,-49.27,24.41
8700,23.1,1013.16,3.68,3.58,0.01,0.06,0.99,-5.18,0.94,-4.54,7.59,-2.95,-49.41,23.93
8731,23.1,1013.16,3.68,3.6,0.03,0.06,0.98,-5.51,-0.44,-4.77,7.59,-3.02,-49.56,24.41
8763,23.1,1013.14,3.82,3.64,0.04,0.04,0.98,-5.15,2.91,-4.79,7.59,-3,-49.71,24.41
8795,23.1,1013.14,3.82,3.68,0.01,0.05,0.98,-4.89,3.29,-5.11,7.61,-2.93,-49.87,23.93
8826,23.1,1013.14,3.82,3.71,0.02,0.05,0.99,-5.19,1.24,-5.03,7.61,-2.94,-50.03,23.93
8860,23.1,1013.13,3.98,3.76,0.03,0.05,0.98,-5.53,1.87,-4.79,7.6,-2.93,-50.19,24.41
8892,23.1,1013.13,3.98,3.81,0.02,0.05,0.99,-5.57,1.41,-4.68,7.59,-2.94,-50.34,24.41
8924,23.1,1013.13,3.98,3.84,0.03,0.05,0.97,-5.38,1.23,-4.71,7.58,-2.95,-50.49,24.9
8956,23.09,1013.12,4.05,3.88,0.02,0.05,0.98,-5.61,0.46,-4.6,7.58,-2.98,-50.64,24.9
8987,23.09,1013.12,4.05,3.92,0.04,0.05,0.98,-5.1,2.34,-4.69,7.59,-2.98,-50.79,25.39
9019,23.09,1013.12,4.05,3.94,0.02,0.06,0.98,-5.04,3.58,-4.69,7.6,-2.91,-50.94,24.9
9053,23.1,1013.13,3.95,3.94,0,0.05,1,-5.53,-0.06,-4.79,7.59,-2.94,-51.1,24.9
9084,23.1,1013.13,3.95,3.94,0.04,0.05,0.98,-5.93,-0.16,-4.74,7.58,-3.02,-51.25,24.41
9115,23.1,1013.13,3.95,3.94,0.04,0.04,0.98,-5.01,3.49,-4.85,7.59,-2.98,-51.4,24.9
9147,23.11,1013.13,3.95,3.95,0.02,0.05,0.98,-4.89,2.02,-4.76,7.6,-2.96,-51.55,24.9
9179,23.11,1013.13,3.95,3.95,0.01,0.05,0.98,-5.76,-0.88,-4.63,7.59,-3.03,-51.7,25.88
9210,23.11,1013.13,3.95,3.95,0.03,0.05,0.97,-5.77,0.31,-4.77,7.58,-3.07,-51.85,25.39
9244,23.1,1013.09,4.26,4.01,0.02,0.05,0.99,-5.03,2.72,-4.88,7.58,-3.03,-52.01,24.41
9276,23.1,1013.09,4.26,4.06,0.02,0.05,0.99,-5.53,0.74,-4.77,7.57,-3.05,-52.16,25.39
9308,23.1,1013.09,4.26,4.1,0.03,0.05,0.98,-5.51,0.4,-4.85,7.56,-3.1,-52.32,24.9
9340,23.11,1013.1,4.2,4.12,0.02,0.05,0.99,-5.01,2.87,-4.83,7.57,-3.05,-52.47,23.93
9371,23.11,1013.1,4.2,4.14,0.02,0.05,0.98,-5.12,1.96,-4.85,7.58,-3.04,-52.62,25.39
9403,23.11,1013.1,4.2,4.15,0.02,0.05,0.98,-5.18,1.52,-4.83,7.58,-3.05,-52.78,24.9
9437,23.09,1013.06,4.54,4.23,0.02,0.05,0.98,-4.95,3.03,-4.95,7.59,-2.99,-52.95,23.93
9468,23.09,1013.06,4.54,4.29,0.02,0.05,0.98,-5.33,0.05,-4.68,7.59,-3.04,-53.09,24.9
9499,23.09,1013.06,4.54,4.34,0.04,0.05,0.98,-5.35,1.82,-4.88,7.6,-3.05,-53.24,24.9
9531,23.09,1013.11,4.13,4.3,0.01,0.05,0.99,-5.09,3.78,-4.82,7.61,-2.97,-53.4,24.41
9563,23.11,1013.11,4.13,4.27,0.02,0.05,0.98,-5.82,1.21,-4.77,7.6,-2.98,-53.55,24.41
9594,23.11,1013.11,4.13,4.24,0.02,0.05,0.98,-5.36,2.48,-5.03,7.59,-2.95,-53.71,25.39
9628,23.11,1013.08,4.35,4.26,0.02,0.06,0.99,-5.38,1.87,-4.86,7.59,-2.94,-53.87,25.39
9660,23.11,1013.08,4.35,4.28,0.03,0.05,0.97,-5.24,1.53,-4.8,7.59,-2.95,-54.02,25.39
9692,23.11,1013.08,4.35,4.29,0.02,0.05,0.99,-5.32,1.03,-4.66,7.59,-2.97,-54.17,23.93
9724,23.11,1013.08,4.42,4.32,0.04,0.05,0.99,-5.22,0.92,-4.44,7.59,-3.01,-54.32,24.41
9755,23.11,1013.07,4.49,4.35,0.01,0.04,0.99,-5.3,2.25,-4.79,7.59,-2.97,-54.46,24.41
9787,23.11,1013.07,4.49,4.38,0.02,0.05,0.98,-5.61,0.4,-4.89,7.58,-3.01,-54.62,23.44
9821,23.11,1013.07,4.59,4.42,0.04,0.05,0.97,-5.56,0.94,-4.86,7.55,-3.04,-54.79,24.9
9852,23.11,1013.05,4.59,4.45,0.03,0.05,0.98,-5.13,1.99,-5.05,7.56,-3.04,-54.94,24.41
9883,23.11,1013.05,4.59,4.48,0.02,0.05,0.97,-4.84,3.64,-4.63,7.58,-2.98,-55.09,23.93
9915,23.11,1013.05,4.59,4.5,0.03,0.06,0.99,-5.27,0.78,-4.45,7.58,-3.01,-55.23,24.9
9947,23.09,1013.02,4.87,4.58,0.03,0.04,0.98,-5.47,0.81,-4.45,7.57,-3.05,-55.37,25.88
9978,23.09,1013.02,4.87,4.64,0.01,0.05,0.99,-5.16,2.28,-4.83,7.57,-3,-55.53,24.9
10012,23.09,1013.02,4.87,4.68,0.01,0.05,0.99,-4.9,1.42,-5,7.57,-3,-55.69,24.41
10044,23.12,1013.05,4.59,4.66,0.03,0.05,0.98,-5.09,1.67,-4.85,7.58,-3,-55.85,24.9
10076,23.12,1013.05,4.59,4.65,0.03,0.05,0.99,-5.47,1.65,-4.79,7.57,-3.01,-56,24.41
10108,23.12,1013.05,4.59,4.64,0.03,0.05,0.99,-5.53,1.24,-4.53,7.57,-3.02,-56.14,24.41
10139,23.12,1013.04,4.7,4.65,0.02,0.06,0.98,-5.65,1.58,-4.95,7.57,-3.02,-56.3,24.41
10171,23.12,1013.04,4.7,4.66,0.02,0.05,0.98,-5.32,2.23,-4.92,7.56,-3,-56.45,23.93
10205,23.12,1013.04,4.7,4.67,0.01,0.05,0.99,-5.25,2.74,-4.82,7.55,-2.95,-56.62,24.9
10236,23.11,1013.04,4.74,4.68,0.01,0.05,0.98,-5.06,2.14,-4.71,7.56,-2.91,-56.76,24.9
10267,23.11,1013.04,4.74,4.69,0.02,0.05,0.97,-5.36,0.94,-4.65,7.56,-2.94,-56.91,25.39
10299,23.11,1013.04,4.74,4.7,0.03,0.05,0.99,-5.21,0.84,-4.6,7.57,-2.97,-57.06,24.41
10331,23.11,1012.99,5.11,4.78,0.03,0.05,0.98,-5.16,1.67,-4.71,7.57,-2.98,-57.21,23.93
10362,23.11,1012.99,5.11,4.85,0.01,0.05,0.97,-5.18,1.85,-4.74,7.58,-2.96,-57.36,24.9
10396,23.11,1012.99,5.11,4.9,0.02,0.05,0.97,-5.38,0.03,-4.68,7.57,-3.01,-57.51,24.9
10428,23.12,1013.02,4.82,4.89,0.02,0.05,0.98,-5.45,1.18,-4.65,7.57,-3.02,-57.66,23.93
10460,23.12,1013.02,4.82,4.87,0.02,0.06,0.98,-5.3,2.45,-4.71,7.57,-3,-57.81,23.93
10492,23.12,1013.02,4.82,4.86,0.02,0.04,0.99,-5.44,1.5,-4.79,7.56,-3,-57.97,24.9
10523,23.12,1013,5.03,4.9,0.03,0.04,1.01,-5.97,0.45,-4.92,7.54,-3.04,-58.12,24.9
10555,23.12,1013,5.03,4.92,0.03,0.02,0.99,-5.06,1.94,-4.85,7.5,-3.04,-58.27,25.39
10589,23.12,1013,5.03,4.95,0.01,0.04,0.99,-5.5,2.57,-4.89,7.48,-2.99,-58.44,24.9
10620,23.12,1012.98,5.17,4.99,0.01,0.06,0.99,-5.59,0.14,-4.65,7.49,-3.02,-58.58,24.9
10651,23.12,1012.98,5.17,5.03,0.02,0.06,0.97,-5.33,1.82,-4.66,7.5,-3.01,-58.73,24.9
10683,23.12,1012.98,5.17,5.05,0.02,0.06,0.98,-5.24,0.91,-5,7.51,-3.03,-58.89,24.9
10715,23.12,1012.97,5.26,5.09,0.03,0.06,0.99,-5.24,2.29,-5.08,7.53,-3.02,-59.05,24.9
10746,23.12,1012.97,5.26,5.13,0.02,0.05,0.98,-4.89,2.51,-4.68,7.54,-2.98,-59.2,24.9
10780,23.12,1012.97,5.26,5.15,0.03,0.03,0.98,-5.64,1.23,-4.94,7.5,-3,-59.36,25.39
10812,23.12,1012.99,5.11,5.14,0.03,0.04,0.98,-5.36,1.59,-4.63,7.49,-3.01,-59.51,24.41
10844,23.12,1012.99,5.11,5.14,0.02,0.05,0.98,-5.54,0.63,-4.6,7.49,-3.04,-59.66,24.41
10876,23.12,1012.99,5.11,5.13,0.03,0.06,0.97,-5.1,1.2,-4.68,7.52,-3.06,-59.81,24.9
10907,23.12,1012.97,5.26,5.16,0.02,0.06,0.98,-4.99,3.38,-4.79,7.54,-3.01,-59.96,24.9
10941,23.12,1012.97,5.26,5.18,0.01,0.06,0.98,-5.57,-0.55,-4.86,7.53,-3.06,-60.12,24.41
10973,23.12,1012.97,5.26,5.2,0.04,0.03,0.98,-6.19,-1.2,-4.47,7.48,-3.16,-60.26,24.9
11004,23.12,1012.98,5.17,5.19,0.02,0.05,0.98,-6.44,-0.41,-4.76,7.45,-3.22,-60.41,24.41
11035,23.12,1012.98,5.17,5.19,0.03,0.04,1,-5.57,1.15,-4.77,7.44,-3.24,-60.56,24.9
11067,23.12,1012.98,5.17,5.19,0.04,0.07,0.97,-4.12,4.81,3.75,7.5,-3.14,-60.44,24.9
11099,23.12,1012.97,5.32,5.21,0.07,0.02,0.96,-7.38,-1.66,-3.02,7.41,-3.29,-60.54,24.41
11132,23.12,1012.97,5.32,5.23,0.02,0.04,0.99,-6.43,-2.67,-4.47,7.36,-3.42,-60.68,24.9
11163,23.12,1012.97,5.32,5.25,0.04,0.06,0.99,-4.67,3.73,-4.8,7.4,-3.37,-60.83,24.9
11195,23.12,1012.95,5.42,5.28,0.01,0.06,0.99,-5.94,0.39,-4.79,7.39,-3.38,-60.99,25.39
11227,23.12,1012.95,5.42,5.31,0.04,0.03,0.98,-5.12,0.16,-5.17,7.38,-3.44,-61.15,25.39
11258,23.12,1012.95,5.42,5.33,0.03,0.04,0.99,-4.02,5.74,-4.8,7.41,-3.32,-61.31,24.9
11290,23.12,1012.95,5.44,5.36,0.02,0.04,0.98,-3.03,6.92,-4.62,7.48,-3.15,-61.45,24.9
11324,23.12,1012.95,5.44,5.37,0.01,0.06,0.99,-5.33,2.03,-5.17,7.48,-3.11,-61.62,24.41
11356,23.12,1012.95,5.44,5.39,0.03,0.05,0.97,-5.7,0.75,-4.95,7.47,-3.15,-61.78,25.39
11388,23.12,1012.94,5.49,5.41,0.03,0.05,0.97,-4.83,3.52,-4.79,7.48,-3.09,-61.94,24.9
11419,23.12,1012.94,5.49,5.42,0.01,0.05,0.99,-4.99,2.65,-4.71,7.5,-3.05,-62.08,25.39
11451,23.12,1012.94,5.49,5.44,0.01,0.05,0.98,-5.61,0.39,-4.71,7.49,-3.08,-62.23,23.93
11483,23.12,1012.92,5.73,5.5,0.03,0.05,0.98,-6.49,-1.92,-4.8,7.46,-3.19,-62.39,24.41
11516,23.12,1012.92,5.73,5.54,0.02,0.05,0.98,-6.19,-0.59,-4.71,7.43,-3.26,-62.54,24.41
11547,23.12,1012.92,5.73,5.58,0.02,0.06,0.97,-5.94,0.94,-4.85,7.44,-3.26,-62.69,24.41
11579,23.12,1012.89,5.94,5.65,0.02,0.06,0.98,-4.6,4.92,-0.07,7.47,-3.15,-62.69,24.9
11611,23.12,1012.89,5.94,5.71,0,0.06,0.99,-6.31,-1.48,0.71,7.45,-3.21,-62.67,24.9
11642,23.12,1012.89,5.94,5.75,0.03,0.06,0.97,-5.62,0.17,1.58,7.45,-3.27,-62.62,24.9
11674,23.12,1012.9,5.86,5.78,0.04,0.04,0.98,-4.92,3.56,-1.7,7.46,-3.22,-62.67,24.9
11708,23.12,1012.9,5.86,5.79,0.04,0.03,0.97,-5.09,2.75,-4.4,7.44,-3.19,-62.82,25.39
11740,23.12,1012.9,5.86,5.8,-0.01,0.06,0.99,-5.56,2.16,-3.79,7.45,-3.14,-62.94,24.41
11772,23.13,1012.89,5.93,5.83,0.02,0.04,0.98,-5.38,1.99,-5.05,7.44,-3.13,-63.11,23.93
11803,23.13,1012.89,5.93,5.85,0,0.06,0.99,-5.53,0.25,-5.09,7.45,-3.14,-63.26,23.93
11835,23.13,1012.89,5.93,5.87,0,0.06,0.99,-7.82,-5.9,-4.74,7.38,-3.34,-63.42,24.9
11867,23.12,1012.88,6.04,5.9,0.09,0.04,0.92,-6.19,0.77,-0.88,7.35,-3.44,-63.44,24.9
11900,23.12,1012.88,6.04,5.93,0.07,0.03,0.96,-4.11,5.42,-4.44,7.36,-3.36,-63.59,24.41
11931,23.12,1012.88,6.04,5.95,-0.06,0.07,1.01,-2.51,13.97,-4.95,7.48,-2.88,-63.74,24.9
11963,23.12,1012.86,6.22,6,0.01,0.01,0.96,-5.53,0.25,-8.45,7.43,-2.92,-64.01,23.93
11995,23.12,1012.86,6.22,6.05,0.03,0.05,0.98,-6.32,-3.19,-11.02,7.39,-3.08,-64.37,24.41
12026,23.12,1012.86,6.22,6.08,0.05,0.07,0.97,-5.94,-0.8,-6.86,7.4,-3.19,-64.59,25.39
12058,23.13,1012.85,6.28,6.12,0.05,0.05,0.98,-5.22,3.96,4.57,7.4,-3.15,-64.44,24.9
12098,23.13,1012.85,6.28,6.15,-0.01,0.04,1,-4.55,2.91,-4.34,7.38,-3.05,-64.62,24.41
12130,23.13,1012.85,6.28,6.18,0.01,0.05,0.98,-6.57,-4.19,-5.6,7.34,-3.21,-64.8,25.39
12161,23.12,1012.81,6.64,6.27,0.07,0.02,0.97,-6.09,-0.84,-12.4,7.29,-3.34,-65.18,24.9
12192,23.12,1012.81,6.64,6.35,0.03,0.05,0.98,-2.9,9,-6.11,7.38,-3.12,-65.37,24.41
12224,23.12,1012.81,6.64,6.41,0,0.06,1,-4.12,6.34,-4.54,7.43,-2.94,-65.52,24.9
12258,23.13,1012.84,6.36,6.4,0,0.06,0.99,-5.74,1,-4.28,7.42,-2.93,-65.66,24.41
12289,23.13,1012.84,6.36,6.39,0.02,0.05,0.99,-5.73,1.52,0.02,7.41,-2.93,-65.66,24.9
12320,23.13,1012.84,6.36,6.38,0.04,0.04,0.96,-4.44,4.28,-2.98,7.44,-2.87,-65.75,23.44
12352,23.13,1012.84,6.38,6.38,0,0.05,0.99,-4.93,2.65,-4.79,7.45,-2.82,-65.91,23.93
12384,23.13,1012.84,6.38,6.38,0.03,0.05,0.98,-5.25,1.67,-4.8,7.45,-2.82,-66.06,24.9
12415,23.13,1012.84,6.38,6.38,0.02,0.14,1.02,-3.79,3.24,-2.92,7.61,-2.77,-66.15,24.9
12448,23.13,1012.85,6.31,6.37,0,0.05,0.96,-5.53,0.29,-5.67,7.6,-2.79,-66.34,25.39
12480,23.13,1012.85,6.31,6.35,0.02,0.04,0.97,-5.13,0.72,-8.74,7.59,-2.81,-66.62,23.93
12512,23.13,1012.85,6.31,6.35,0.05,0.03,0.98,-4.95,2.31,-11.6,7.58,-2.82,-66.99,24.9
12543,23.13,1012.84,6.4,6.36,0.04,0.06,0.98,-5.21,0.72,-8.97,7.6,-2.88,-67.27,24.9
12574,23.13,1012.84,6.4,6.36,0.01,0.05,0.99,-5.36,-0.04,-4.44,7.61,-2.92,-67.41,24.9
12606,23.13,1012.84,6.4,6.37,0.05,0.05,0.97,-5.67,0.72,-4.53,7.59,-2.98,-67.55,24.9
12640,23.13,1012.81,6.6,6.42,0.02,0.05,0.99,-5.48,2.71,-4.77,7.57,-2.94,-67.71,24.41
12671,23.13,1012.81,6.6,6.45,0.01,0.05,0.98,-5.39,1.64,-4.85,7.57,-2.92,-67.86,24.41
12702,23.13,1012.81,6.6,6.48,0.02,0.06,0.97,-5.8,-1.14,-4.57,7.58,-3.01,-68,23.93
12734,23.13,1012.8,6.7,6.53,0.03,0.05,0.98,-6.92,-0.26,-4.86,7.53,-3.07,-68.16,24.9
12766,23.13,1012.8,6.7,6.56,0.05,0.03,0.98,-5.91,2.32,-4.91,7.48,-3.08,-68.32,24.9
12797,23.13,1012.8,6.7,6.59,0.04,0.04,0.98,-2.81,7.44,-5.02,7.55,-2.92,-68.47,24.41
12830,23.13,1012.79,6.75,6.62,0.07,0.06,0.97,-5.62,9.59,-4.42,7.54,-2.71,-68.62,24.9
12862,23.13,1012.79,6.75,6.65,-0.02,0.04,1,-5.68,9.59,0.37,7.52,-2.42,-68.61,24.9
12894,23.13,1012.79,6.75,6.67,0.01,0.07,0.98,-5.96,4.49,0.66,7.51,-2.32,-68.59,24.41
12925,23.13,1012.81,6.64,6.66,0,0.06,0.98,-5.3,0.57,-0.21,7.53,-2.33,-68.59,24.41
12956,23.13,1012.81,6.64,6.66,0,0.05,0.98,-4.66,2.02,-4.94,7.55,-2.31,-68.74,24.9
12988,23.13,1012.81,6.64,6.65,0.04,0.07,0.98,-4.92,3.1,-5.18,7.59,-2.3,-68.91,24.9
13022,23.13,1012.76,7.06,6.73,0.06,0.06,0.97,-4.93,2.36,-4.77,7.6,-2.32,-69.07,24.41
13053,23.13,1012.76,7.06,6.8,0,0.04,0.98,-5.32,2.02,-4.92,7.59,-2.3,-69.23,25.39
13084,23.13,1012.76,7.06,6.85,0,0.05,0.98,-5.18,6.65,-4.97,7.6,-2.14,-69.38,24.41
13116,23.13,1012.76,7.02,6.88,0,0.05,0.99,-5.25,3.15,-4.59,7.6,-2.09,-69.53,24.9
13148,23.13,1012.76,7.02,6.91,-0.02,0.05,1,-5.61,-7.43,-4.34,7.6,-2.33,-69.67,24.41
13180,23.13,1012.76,7.02,6.93,0,0.06,0.98,-5.44,-9.13,-4.63,7.6,-2.66,-69.81,25.39
13213,23.13,1012.78,6.87,6.92,0.1,0.11,0.97,-5.93,-11.42,-3.73,7.64,-3.18,-69.94,24.41
13245,23.13,1012.78,6.87,6.91,0.04,0.05,0.98,-4.6,4.32,-5.02,7.66,-3.11,-70.1,24.9
13277,23.13,1012.78,6.87,6.9,0.02,0.05,0.97,-5.18,5.15,-4.97,7.66,-3,-70.26,24.41
13308,23.13,1012.77,6.96,6.91,0.01,0.05,0.98,-5.25,6.78,-4.42,7.67,-2.83,-70.39,24.9
13339,23.13,1012.77,6.96,6.92,-0.03,0.05,0.98,-4.93,3.62,-5.11,7.69,-2.71,-70.55,24.41
13371,23.13,1012.77,6.96,6.93,0.01,0.05,0.98,-5.25,-1.8,-5.05,7.69,-2.8,-70.71,24.9
13405,23.13,1012.75,7.14,6.97,0,0.05,0.98,-4.96,-7.2,-4.88,7.69,-3.07,-70.88,23.93
13436,23.13,1012.75,7.14,7,0.01,0.05,0.98,-5.07,1.52,-4.63,7.7,-3.05,-71.02,25.39
13467,23.13,1012.75,7.14,7.03,0.01,0.04,0.98,-5.1,2.86,-4.88,7.7,-3,-71.17,23.93
13499,23.13,1012.75,7.16,7.06,0.02,0.05,0.98,-5.21,3.56,-5.21,7.71,-2.92,-71.34,24.9
13531,23.14,1012.74,7.16,7.08,0.03,0.05,0.97,-5.3,4.22,-4.83,7.7,-2.85,-71.5,24.9
13564,23.14,1012.74,7.16,7.09,0,0.05,0.99,-5.18,4.72,-4.91,7.69,-2.72,-71.66,23.93
13595,23.14,1012.74,7.16,7.1,0.03,0.05,0.97,-5.42,4.94,-4.57,7.7,-2.64,-71.8,25.39
13627,23.13,1012.74,7.16,7.12,-0.03,0.04,1,-5.32,8.31,-4.5,7.68,-2.38,-71.94,24.41
13659,23.13,1012.74,7.16,7.13,-0.02,0.05,0.98,-5.28,-0.9,-4.73,7.68,-2.42,-72.09,23.93
13690,23.13,1012.74,7.16,7.13,0.02,0.05,0.98,-5.32,-1.93,-4.89,7.68,-2.54,-72.25,23.93
13722,23.14,1012.7,7.51,7.21,0,0.06,0.98,-5.65,-1.77,-4.94,7.68,-2.63,-72.4,24.41
13756,23.14,1012.7,7.51,7.27,0.02,0.05,0.98,-5.28,-1.93,-4.91,7.67,-2.75,-72.57,23.93
13788,23.14,1012.7,7.51,7.32,0.03,0.05,0.98,-5.32,1.9,-4.95,7.66,-2.76,-72.73,23.44
13820,23.13,1012.71,7.46,7.34,0.02,0.05,0.98,-5.33,8.14,-4.56,7.66,-2.55,-72.88,24.9
13851,23.13,1012.71,7.46,7.37,0.02,0.05,0.99,-5.13,1.39,-4.92,7.67,-2.57,-73.03,24.9
13883,23.13,1012.71,7.46,7.38,0,0.05,0.97,-5.22,4.77,-4.51,7.67,-2.45,-73.17,24.9
13915,23.13,1012.69,7.62,7.43,-0.02,0.06,0.98,-5.38,-2.27,-4.63,7.67,-2.54,-73.32,24.41
13948,23.13,1012.69,7.62,7.47,0.02,0.05,0.99,-5.19,-3.9,-4.91,7.67,-2.73,-73.48,25.39
13979,23.13,1012.69,7.62,7.5,0.04,0.05,0.97,-5.28,-0.5,-4.85,7.67,-2.82,-73.63,24.9
14011,23.13,1012.69,7.65,7.53,0.02,0.05,0.98,-5.41,0.98,-4.79,7.66,-2.84,-73.79,24.9
14043,23.13,1012.69,7.65,7.56,0.03,0.06,0.98,-5.41,0.48,-4.82,7.67,-2.89,-73.94,24.41
14074,23.13,1012.69,7.65,7.58,0.02,0.05,0.98,-5.27,0.14,-4.39,7.66,-2.94,-74.08,24.9
14106,23.13,1012.67,7.74,7.61,0.01,0.05,0.99,-5.22,0.13,-4.71,7.67,-2.97,-74.23,25.39
14140,23.13,1012.67,7.74,7.63,0.04,0.05,0.98,-5.1,0.84,-4.65,7.66,-3.01,-74.38,24.9
14172,23.13,1012.67,7.74,7.65,0.01,0.05,0.98,-4.89,3.29,-5.06,7.67,-2.94,-74.55,24.41
14204,23.14,1012.71,7.46,7.62,0.03,0.04,0.98,-5.36,0.28,-4.5,7.65,-3,-74.69,23.93
14235,23.14,1012.71,7.46,7.58,0.02,0.05,0.97,-5.48,1.1,-4.48,7.65,-3.01,-74.83,24.41
14267,23.14,1012.71,7.46,7.56,0.02,0.04,0.98,-4.99,3.97,-5.09,7.65,-2.94,-74.99,23.93
14299,23.14,1012.65,7.94,7.63,0.02,0.05,0.97,-5.27,2.95,-4.92,7.65,-2.89,-75.15,24.41
14332,23.14,1012.65,7.94,7.69,0.02,0.06,0.97,-5.61,1.06,-4.65,7.64,-2.9,-75.3,24.9
14363,23.14,1012.65,7.94,7.74,0.01,0.05,0.99,-5.41,0.32,-4.56,7.64,-2.93,-75.44,24.9
14395,23.14,1012.65,7.97,7.79,0.02,0.05,0.98,-5.44,-0.12,-4.44,7.64,-2.97,-75.59,23.44
14427,23.14,1012.65,7.97,7.82,0.01,0.05,0.98,-5.59,-0.77,-4.65,7.62,-3.04,-75.74,24.41
14458,23.14,1012.65,7.97,7.85,0.06,0.04,0.98,-5.39,2.16,-5.06,7.61,-3.06,-75.9,24.41
14490,23.14,1012.66,7.86,7.86,-0.04,0.02,0.99,-5.61,1.62,-5.02,7.57,-2.99,-76.05,23.93
14524,23.14,1012.66,7.86,7.86,0,0.07,1,-5.54,-0.27,-4.8,7.57,-3.02,-76.22,24.41
14556,23.14,1012.66,7.86,7.86,0.02,0.05,0.98,-6.37,-1.39,-4.76,7.53,-3.11,-76.37,24.41
14588,23.14,1012.64,8.05,7.9,0.04,0.04,0.97,-6.02,0.19,-4.73,7.5,-3.17,-76.52,23.93
14619,23.14,1012.64,8.05,7.93,0.02,0.05,0.98,-5.5,1,-5.05,7.5,-3.19,-76.68,24.9
14651,23.14,1012.64,8.05,7.95,0.01,0.01,0.98,-5.73,1.47,-9.7,7.44,-3.18,-76.99,24.9
14683,23.14,1012.6,8.37,8.04,0.03,0.03,0.97,-5.51,-0.85,-4.73,7.42,-3.26,-77.14,24.9
14716,23.14,1012.6,8.37,8.11,-0.02,0.04,0.98,-4.81,1.55,-4.62,7.42,-3.21,-77.29,24.9
14747,23.14,1012.6,8.37,8.16,0.04,0.05,0.97,-5.99,-0.41,-5.87,7.4,-3.28,-77.47,23.93
14779,23.14,1012.62,8.22,8.17,0.06,0.04,0.97,-4.58,2.68,-4.57,7.42,-3.28,-77.62,24.41
14811,23.14,1012.62,8.22,8.18,0.02,0.05,0.96,-4.22,5.2,-4.48,7.46,-3.17,-77.76,24.41
14842,23.14,1012.62,8.22,8.19,0.01,0.05,0.99,-5.01,2.89,-4.82,7.47,-3.11,-77.92,23.93
14876,23.14,1012.61,8.27,8.21,0.03,0.05,0.97,-4.87,2.92,-4.88,7.48,-3.08,-78.08,24.9
14908,23.14,1012.61,8.27,8.22,0.05,0.04,0.98,-3.59,6.45,-4.66,7.53,-2.95,-78.23,24.41
14940,23.14,1012.61,8.27,8.23,-0.01,0.06,0.99,-4.75,3.06,-4.94,7.55,-2.86,-78.38,23.93
14972,23.14,1012.59,8.47,8.28,0.02,0.04,0.99,-4.9,1.27,-4.62,7.56,-2.87,-78.53,24.41
15003,23.14,1012.59,8.47,8.32,0.02,0.05,0.98,-5.5,0.17,-4.65,7.55,-2.91,-78.68,24.41
15035,23.14,1012.59,8.47,8.35,0.02,0.05,0.98,-5.76,0.63,-4.86,7.54,-2.94,-78.83,24.41
15069,23.14,1012.6,8.32,8.34,0.02,0.05,0.98,-5.47,0.61,-4.63,7.52,-2.97,-78.99,24.41
15100,23.14,1012.6,8.32,8.34,0.04,0.05,0.98,-5.1,1.96,-4.95,7.54,-2.98,-79.14,24.9
15131,23.14,1012.6,8.32,8.33,0.01,0.05,0.98,-4.92,2.74,-4.82,7.56,-2.93,-79.29,23.93
15163,23.14,1012.59,8.42,8.35,0.03,0.05,0.98,-5.25,1.29,-4.63,7.56,-2.95,-79.44,24.41
15195,23.14,1012.59,8.42,8.37,0.03,0.05,0.97,-5.44,1.47,-4.53,7.56,-2.96,-79.58,25.39
15226,23.14,1012.59,8.42,8.38,0.03,0.05,0.97,-5.3,1.21,-4.79,7.56,-2.98,-79.74,24.9
15260,23.14,1012.58,8.51,8.4,0.02,0.05,0.99,-5.28,0.89,-4.63,7.55,-3,-79.89,24.41
15292,23.14,1012.58,8.51,8.43,0.02,0.05,0.98,-5.32,2.31,-4.89,7.55,-2.98,-80.05,23.93
15324,23.14,1012.58,8.51,8.44,0.02,0.05,0.99,-5.28,2.07,-5,7.56,-2.95,-80.21,22.95
15356,23.14,1012.58,8.5,8.45,0.02,0.05,0.98,-5.13,0.54,-4.77,7.56,-2.99,-80.36,24.9
15387,23.14,1012.58,8.5,8.46,0.04,0.05,0.97,-5.51,0.91,-4.4,7.57,-3.03,-80.5,24.41
15419,23.14,1012.58,8.5,8.47,0.02,0.05,0.97,-5.41,1.81,-4.88,7.57,-3.02,-80.65,23.93
15453,23.14,1012.57,8.64,8.5,0.02,0.05,0.98,-5.15,1.84,-4.66,7.56,-3.01,-80.81,23.93
15484,23.14,1012.57,8.64,8.53,0.02,0.05,0.99,-5.68,1.09,-4.57,7.56,-3.01,-80.95,24.9
15515,23.14,1012.57,8.64,8.55,0.02,0.05,0.97,-5.59,1.41,-4.73,7.56,-3.01,-81.1,24.41
15547,23.14,1012.56,8.67,8.57,0.03,0.04,0.98,-5.42,0.91,-4.86,7.55,-3.04,-81.26,24.9
15579,23.14,1012.56,8.67,8.59,0.02,0.05,0.99,-5.19,0.94,-4.71,7.55,-3.06,-81.41,24.9
15610,23.14,1012.56,8.67,8.61,0.02,0.06,0.97,-5.71,-0.56,-4.74,7.55,-3.12,-81.56,24.9
15644,23.14,1012.53,8.93,8.67,0.03,0.05,0.97,-5.45,0.02,-4.62,7.54,-3.17,-81.71,24.41
15676,23.14,1012.53,8.93,8.72,0.03,0.05,0.97,-4.95,1.76,-4.59,7.55,-3.17,-81.86,24.9
15708,23.14,1012.53,8.93,8.77,-0.02,0.06,1,-4.93,2.81,-4.69,7.56,-3.08,-82.01,24.41
15740,23.14,1012.53,8.96,8.8,0.02,0.04,0.97,-5.27,1.36,-4.82,7.55,-3.09,-82.16,24.9
15771,23.14,1012.53,8.96,8.83,0.02,0.05,0.99,-5.47,1.33,-4.83,7.56,-3.09,-82.31,23.44
15803,23.14,1012.53,8.96,8.86,0.02,0.04,0.98,-4.92,2.17,-4.57,7.56,-3.07,-82.46,24.9
15837,23.14,1012.51,9.11,8.91,0.03,0.07,0.98,-5.39,3.91,-5.58,7.57,-2.99,-82.65,24.41
15868,23.14,1012.51,9.11,8.95,-0.01,0.04,0.99,-5.45,0.13,-4.71,7.56,-3,-82.79,24.9
15899,23.14,1012.51,9.11,8.98,0.09,0.01,0.96,-7.35,-5.29,-5.26,7.46,-3.29,-82.96,24.9
15931,23.14,1012.52,8.99,8.98,0,0.06,0.99,-5.62,0.91,-5.03,7.47,-3.27,-83.12,24.41
15963,23.14,1012.52,8.99,8.98,0.05,0.04,0.98,-5.83,-0.55,-5,7.44,-3.36,-83.28,24.9
15994,23.14,1012.52,8.99,8.98,0.02,0.06,0.98,-5.33,1.52,-4.63,7.46,-3.36,-83.43,24.41
16028,23.14,1012.52,9.04,8.99,0.04,0.05,0.97,-6.2,0.69,-4.83,7.43,-3.4,-83.58,23.44
16060,23.14,1012.52,9.04,9,0.02,0.05,0.97,-6.22,-2.33,-4.94,7.41,-3.51,-83.74,24.41
16092,23.14,1012.52,9.04,9.01,0.06,0.08,0.95,-3.96,4.29,-0.59,7.49,-3.46,-83.76,23.93
16124,23.14,1012.53,8.94,9,0.02,0.05,0.97,-4.49,4.77,-5.2,7.52,-3.34,-83.93,24.9
16155,23.14,1012.53,8.94,8.98,0.05,0.11,0.88,-3.82,7.2,-4.44,7.65,-3.21,-84.07,24.9
16187,23.14,1012.53,8.94,8.98,0.01,0.08,0.98,-4.22,4.34,-4.82,7.71,-3.1,-84.22,24.9
16221,23.14,1012.51,9.09,9,0.06,0.03,0.96,-4.74,2.87,-5.09,7.7,-3.09,-84.39,24.9
16252,23.14,1012.51,9.09,9.02,0.01,0.06,0.95,-3.85,6.71,-4.73,7.76,-2.92,-84.54,24.9
16283,23.14,1012.51,9.09,9.03,0.03,0.06,0.93,-5.62,0.51,-4.62,7.76,-2.97,-84.68,24.9
16315,23.14,1012.49,9.25,9.08,0.01,0.06,0.96,-6.06,-2.12,-4.79,7.74,-3.07,-84.84,24.41
16347,23.14,1012.49,9.25,9.11,0.04,0.05,0.94,-5.32,0.68,-4.82,7.74,-3.12,-84.99,23.93
16380,23.14,1012.49,9.25,9.14,0.02,0.05,0.94,-4.72,2.92,-4.89,7.75,-3.08,-85.15,24.41
16411,23.14,1012.46,9.51,9.21,0.02,0.05,0.92,-5.45,0.97,-4.92,7.74,-3.1,-85.3,24.9
16443,23.14,1012.46,9.51,9.27,0.05,0.05,0.95,-4.87,1.9,-4.5,7.75,-3.11,-85.45,23.93
16475,23.14,1012.46,9.51,9.32,0.03,0.05,0.93,-4.84,2.86,-4.62,7.77,-3.08,-85.6,23.93
16506,23.14,1012.47,9.42,9.34,0.02,0.05,0.94,-4.93,2.84,-4.89,7.78,-3.04,-85.75,24.41
16538,23.14,1012.47,9.42,9.36,0.02,0.05,0.94,-5.22,2.02,-4.83,7.79,-3.02,-85.9,24.41
16572,23.14,1012.47,9.42,9.37,0.01,0.05,0.95,-5.42,0.66,-4.76,7.77,-3.04,-86.06,24.9
16604,23.14,1012.45,9.63,9.42,0.01,0.06,0.96,-5.35,1.59,-4.89,7.77,-3.02,-86.22,24.9
16636,23.14,1012.45,9.63,9.46,0.01,0.05,0.94,-6.81,-2.65,-4.97,7.72,-3.14,-86.38,24.9
16667,23.14,1012.45,9.63,9.5,-0.04,0.04,0.97,-4.06,6.17,-4.42,7.76,-2.93,-86.52,25.39
16699,23.14,1012.45,9.61,9.52,0.04,0.06,0.95,-6.29,-2.39,-4.68,7.73,-3.07,-86.67,24.9
16731,23.14,1012.45,9.61,9.54,0.04,0.06,0.93,-6.46,-0.77,-4.68,7.7,-3.17,-86.82,24.41
16764,23.14,1012.45,9.61,9.55,0.02,0.05,0.94,-4.58,3.36,-4.42,7.72,-3.11,-86.96,24.41
16795,23.15,1012.45,9.64,9.57,-0.01,0.06,0.96,-5.57,1.29,-4.69,7.73,-3.08,-87.11,24.9
16827,23.15,1012.45,9.64,9.58,0.03,0.06,0.95,-5.85,0.19,-4.92,7.72,-3.13,-87.26,24.9
16859,23.15,1012.45,9.64,9.6,0.03,0.05,0.94,-4.17,4.91,1.41,7.76,-3.03,-87.22,24.9
16890,23.15,1012.46,9.51,9.58,0.02,0.06,0.94,-5.53,0.08,-3.87,7.76,-3.08,-87.34,24.9
16922,23.15,1012.46,9.51,9.57,0.02,0.06,0.93,-5.01,1.64,-3.05,7.79,-3.08,-87.44,24.41
16956,23.15,1012.46,9.51,9.56,0,0.06,0.95,-4.96,1.91,-2.3,7.8,-3.05,-87.52,24.9
16988,23.14,1012.47,9.45,9.53,0.03,0.06,0.94,-5.27,1.09,-2.95,7.8,-3.08,-87.61,24.9
17020,23.14,1012.47,9.45,9.52,0.03,0.06,0.94,-5.35,1.18,-4.76,7.81,-3.1,-87.76,23.44
17051,23.14,1012.47,9.45,9.5,0.03,0.05,0.94,-5.33,1.15,-4.76,7.81,-3.11,-87.91,24.9
17083,23.14,1012.45,9.58,9.52,0.02,0.06,0.95,-5.48,1.49,-4.83,7.81,-3.11,-88.06,24.9
17115,23.14,1012.45,9.58,9.53,0.02,0.05,0.95,-5.21,0.8,-4.69,7.81,-3.13,-88.22,24.41
17148,23.14,1012.45,9.58,9.54,0.04,0.05,0.93,-5.3,1.44,-2.34,7.81,-3.15,-88.29,24.41
17179,23.14,1012.47,9.48,9.53,0.01,0.05,0.95,-5.38,1.35,-4.1,7.81,-3.14,-88.42,23.93
17211,23.14,1012.47,9.48,9.52,0.01,0.05,0.99,-5.38,0.6,-3.99,7.81,-3.15,-88.55,24.9
17243,23.14,1012.47,9.48,9.51,0.03,0.04,0.93,-5.65,1.81,-2.82,7.78,-3.15,-88.64,24.41
17274,23.14,1012.42,9.84,9.58,0.03,0.06,0.94,-5.68,1.21,-4.45,7.78,-3.17,-88.78,24.41
17306,23.14,1012.42,9.84,9.63,0.03,0.04,0.94,-5.47,0.8,-4.51,7.77,-3.2,-88.92,23.93
17340,23.14,1012.42,9.84,9.67,0.03,0.05,0.94,-5.03,3.47,-4.79,7.77,-3.14,-89.08,23.93
17372,23.15,1012.44,9.7,9.67,0.01,0.06,0.95,-5.24,1.21,-4.79,7.78,-3.13,-89.24,24.41
17404,23.15,1012.44,9.7,9.68,0.02,0.05,0.95,-5.51,0.16,-4.66,7.78,-3.17,-89.38,23.93
17435,23.15,1012.44,9.7,9.68,0.02,0.05,0.94,-6.26,-0.68,-4.83,7.75,-3.24,-89.53,23.93
17467,23.15,1012.44,9.96,9.74,0.04,0.05,0.94,-5.56,1.85,-4.79,7.74,-3.26,-89.69,24.9
17499,23.15,1012.41,9.96,9.78,0.02,0.05,0.95,-4.54,4.16,-4.8,7.76,-3.17,-89.84,24.41
17532,23.15,1012.41,9.96,9.82,0.02,0.05,0.95,-4.81,4.46,-4.6,7.77,-3.07,-89.99,25.39
17563,23.15,1012.41,9.91,9.84,0.02,0.05,0.94,-5.54,0.36,-4.63,7.77,-3.11,-90.14,24.9
17595,23.14,1012.41,9.94,9.86,0.01,0.05,0.95,-5.32,1.24,-4.71,7.78,-3.11,-90.29,24.41
17627,23.14,1012.41,9.94,9.87,0.02,0.06,0.94,-5.94,-0.35,-4.82,7.76,-3.16,-90.44,23.93
17658,23.14,1012.41,9.94,9.89,0.03,0.05,0.94,-5.99,-0.16,-4.83,7.74,-3.22,-90.6,23.93
17690,23.15,1012.4,10.02,9.91,0.03,0.05,0.94,-5.68,0.83,-4.92,7.74,-3.25,-90.75,24.41
17720,23.15,1012.4,10.02,9.93,0.03,0.05,0.95,-6.11,-0.84,-4.97,7.72,-3.32,-90.9,24.41
17751,23.15,1012.4,10.02,9.95,0.03,0.05,0.95,-6.26,-0.41,-5.02,7.7,-3.39,-91.05,24.41
17782,23.15,1012.45,9.65,9.89,0.03,0.05,0.96,-5.7,-0.07,-4.8,7.68,-3.44,-91.2,23.93
17814,23.15,1012.45,9.65,9.84,0.04,0.05,0.95,-5.15,1.47,-4.66,7.68,-3.46,-91.35,24.41
17846,23.15,1012.45,9.65,9.8,0.04,0.05,0.94,-5.35,1.39,-4.82,7.68,-3.48,-91.51,24.9
17879,23.15,1012.42,9.89,9.82,0.04,0.04,0.94,-4.69,2.92,-4.68,7.69,-3.44,-91.66,24.9
17910,23.15,1012.42,9.89,9.83,0.01,0.05,0.96,-5.39,1.96,-4.79,7.69,-3.41,-91.81,24.9
17942,23.15,1012.42,9.89,9.85,0.03,0.04,0.96,-5.93,-0.24,-5.24,7.66,-3.47,-91.98,24.41
17974,23.15,1012.44,9.7,9.82,0.04,0.04,0.95,-4.78,3.35,-4.59,7.66,-3.43,-92.12,24.9
18005,23.15,1012.44,9.7,9.79,0.03,0.06,0.95,-4.57,3.3,-4.68,7.7,-3.38,-92.27,24.9
18036,23.15,1012.44,9.7,9.77,0.02,0.05,0.96,-5.13,2.34,-4.89,7.71,-3.35,-92.42,24.41
18070,23.15,1012.46,9.53,9.73,0.03,0.04,0.95,-5.35,1.33,-4.65,7.69,-3.36,-92.58,24.9
18102,23.15,1012.46,9.53,9.69,0.02,0.05,0.97,-4.67,4.02,-4.56,7.71,-3.27,-92.72,24.41
18133,23.15,1012.46,9.53,9.66,0.03,0.05,0.97,-4.77,2.74,-4.82,7.73,-3.23,-92.87,24.9
18164,23.15,1012.43,9.75,9.67,0.01,0.05,0.97,-5.01,0.81,-4.89,7.74,-3.24,-93.02,23.44
18196,23.15,1012.43,9.75,9.69,0.01,0.06,0.96,-5.36,0.87,-4.69,7.74,-3.25,-93.18,24.9
18228,23.15,1012.43,9.75,9.7,0.03,0.05,0.96,-6.03,-0.73,-4.62,7.72,-3.32,-93.32,24.41
18261,23.15,1012.42,9.85,9.73,0.02,0.06,0.97,-5.47,1.38,-4.59,7.72,-3.32,-93.47,23.93
18292,23.15,1012.42,9.85,9.75,0.02,0.05,0.97,-5.93,0.45,-4.83,7.7,-3.35,-93.62,24.41
18324,23.15,1012.42,9.85,9.77,0.02,0.05,0.97,-5.76,0.63,-4.86,7.68,-3.38,-93.78,24.9
18356,23.15,1012.44,9.72,9.76,0.03,0.05,0.97,-5.74,-0.35,-4.79,7.66,-3.44,-93.93,24.9
18387,23.15,1012.44,9.72,9.75,0.03,0.05,0.97,-5.65,0.61,-4.69,7.66,-3.47,-94.08,24.9
18418,23.15,1012.44,9.72,9.75,0.03,0.04,0.97,-5.61,0.74,-4.73,7.65,-3.5,-94.23,24.41
18452,23.15,1012.41,9.91,9.78,0.04,0.05,0.97,-4.93,2.63,-4.68,7.64,-3.47,-94.38,23.44
18484,23.15,1012.41,9.91,9.81,0.03,0.04,0.97,-4.66,3.41,-4.92,7.66,-3.41,-94.54,25.39
18515,23.15,1012.41,9.91,9.83,0.03,0.05,0.97,-4.92,2.43,-4.73,7.67,-3.38,-94.69,24.41
18546,23.15,1012.43,9.78,9.82,0.03,0.05,0.98,-4.58,2.95,-4.51,7.7,-3.33,-94.83,24.41
18578,23.15,1012.43,9.78,9.81,0.03,0.05,0.98,-4.87,1.93,-4.73,7.71,-3.32,-94.98,24.9
18610,23.15,1012.43,9.78,9.81,0.02,0.05,0.98,-5.67,1.06,-4.82,7.7,-3.33,-95.13,24.41
18643,23.15,1012.43,9.74,9.79,0.03,0.05,0.98,-4.83,2.91,-4.73,7.7,-3.29,-95.29,24.41
18674,23.15,1012.43,9.74,9.78,0.03,0.05,0.98,-4.41,4.6,-4.83,7.73,-3.21,-95.44,24.9
18706,23.15,1012.43,9.74,9.77,0.01,0.05,0.98,-4.06,5.24,-4.65,7.77,-3.08,-95.59,24.9
18738,23.15,1012.42,9.9,9.8,0.03,0.01,0.99,-4.44,3.3,-2.34,7.74,-3.03,-95.66,23.93
18769,23.15,1012.42,9.9,9.82,0.03,0.05,0.97,-5.59,0.78,-4.82,7.73,-3.07,-95.81,24.41
18800,23.15,1012.42,9.9,9.84,0.02,0.05,0.99,-5.15,2.78,-4.85,7.74,-3.03,-95.96,24.9
18834,23.15,1012.42,9.84,9.84,0.02,0.05,0.98,-5.5,1.53,-4.77,7.72,-3.02,-96.12,24.9
18866,23.15,1012.42,9.84,9.84,0,0.03,0.99,-5.28,0.2,-5.11,7.7,-3.04,-96.29,24.9
18897,23.15,1012.42,9.84,9.84,0.02,0.05,0.98,-5.56,0.45,-4.66,7.69,-3.08,-96.43,23.93
18928,23.15,1012.43,9.75,9.82,0.03,0.05,0.98,-5.22,1.76,-4.66,7.69,-3.08,-96.58,24.9
18960,23.15,1012.43,9.75,9.81,0,0.05,0.99,-5.12,1.52,-4.63,7.7,-3.06,-96.73,23.93
18992,23.15,1012.43,9.75,9.8,0.04,0.05,0.97,-5.53,1.23,-4.47,7.68,-3.09,-96.87,24.41
19025,23.15,1012.41,9.92,9.82,0,0.05,0.99,-5.06,3.29,-4.89,7.68,-3,-97.03,24.41
19056,23.15,1012.41,9.92,9.84,0.05,0.06,0.97,-6.02,-0.32,-4.97,7.67,-3.09,-97.18,24.41
19088,23.15,1012.41,9.92,9.86,0.01,0.06,0.97,-4.06,6.81,-4.59,7.72,-2.92,-97.33,24.9
19120,23.15,1012.42,9.88,9.86,0.03,0.05,0.98,-5.82,-1.26,-4.66,7.7,-3.02,-97.48,24.9
19151,23.15,1012.42,9.88,9.87,0.02,0.06,0.97,-5.47,0.84,-4.88,7.7,-3.04,-97.64,24.41
19185,23.15,1012.42,9.88,9.87,-0.01,0.06,0.99,-6.69,-3.68,-4.71,7.66,-3.18,-97.79,24.9
19217,23.15,1012.42,9.83,9.86,0.05,0.04,0.97,-7.42,-3.43,-4.83,7.58,-3.36,-97.95,24.9
19249,23.15,1012.42,9.83,9.86,0.02,0.05,0.97,-5.99,-0.26,-4.65,7.56,-3.41,-98.09,24.9
19281,23.15,1012.42,9.83,9.85,0.02,0.05,0.98,-4.96,3.53,-3.4,7.57,-3.34,-98.2,24.9
19312,23.15,1012.43,9.75,9.83,0.03,0.03,0.97,-4.08,4.97,-0.48,7.59,-3.24,-98.22,23.44
19344,23.15,1012.43,9.75,9.82,0.01,0.05,0.98,-4.89,2.2,-3.79,7.6,-3.2,-98.34,24.41
19378,23.15,1012.43,9.75,9.8,0.03,0.05,0.97,-3.86,4.63,-4.6,7.64,-3.1,-98.5,23.44
19409,23.15,1012.42,9.85,9.81,0.01,0.06,0.99,-5.51,0.91,-4.83,7.64,-3.11,-98.65,24.41
19440,23.15,1012.42,9.85,9.82,0.03,0.05,0.98,-4.86,4.05,-4.71,7.66,-3.04,-98.79,24.9
19472,23.15,1012.42,9.85,9.83,0.02,0.06,0.98,-5.73,1.12,-0.66,7.66,-3.05,-98.81,24.41
19504,23.15,1012.41,9.94,9.85,0.05,0.04,0.97,-5.12,1.55,-4.74,7.65,-3.09,-98.97,24.41
19535,23.15,1012.41,9.94,9.87,0,0.06,0.99,-4.17,4.34,-4.66,7.7,-2.97,-99.11,24.9
19569,23.15,1012.41,9.94,9.88,0.03,0.05,0.98,-6.02,-0.39,-4.57,7.67,-3.04,-99.27,24.41
19601,23.15,1012.43,9.78,9.86,0.02,0.04,0.98,-4.92,1.62,-4.6,7.68,-3.04,-99.41,23.93
19633,23.15,1012.43,9.78,9.85,0.04,0.05,0.97,-4.98,2.32,-4.77,7.69,-3.03,-99.57,23.93
19665,23.15,1012.43,9.78,9.83,0.01,0.06,0.98,-5.22,2.97,-4.86,7.69,-2.97,-99.72,24.9
19696,23.15,1012.43,9.74,9.81,0.03,0.05,0.98,-5.03,2.91,-4.88,7.71,-2.95,-99.87,24.9
19728,23.15,1012.43,9.74,9.8,0.01,0.06,0.99,-5.09,2.52,-4.74,7.72,-2.9,-100.02,23.93
19762,23.15,1012.43,9.74,9.79,0.04,0.05,0.98,-5.09,2.89,-4.91,7.71,-2.87,-100.19,24.9
19793,23.15,1012.44,9.72,9.78,0.02,0.05,0.98,-5.19,2.23,-4.76,7.72,-2.86,-100.34,24.41
19824,23.15,1012.44,9.72,9.76,0.02,0.05,0.98,-5.27,1.24,-4.66,7.72,-2.87,-100.48,24.9
19856,23.15,1012.44,9.72,9.76,0.02,0.06,0.97,-5.36,1.81,-4.91,7.72,-2.87,-100.64,23.44
19888,23.15,1012.44,9.66,9.74,0.01,0.05,0.98,-5.38,1.49,-4.6,7.72,-2.87,-100.79,24.9
19919,23.15,1012.44,9.66,9.72,0.02,0.05,0.98,-5.28,1.24,-4.79,7.71,-2.88,-100.94,23.93
19953,23.15,1012.44,9.66,9.71,0.02,0.05,0.98,-5.19,2.02,-4.76,7.71,-2.86,-101.1,24.9
19985,23.16,1012.46,9.49,9.67,0.02,0.05,0.99,-5.33,1.61,-4.69,7.71,-2.86,-101.25,23.44
20017,23.16,1012.46,9.49,9.63,0.02,0.05,0.98,-5.19,1.56,-4.54,7.71,-2.85,-101.39,23.93
20049,23.16,1012.46,9.49,9.6,0.01,0.05,0.98,-5.54,0.68,-4.76,7.71,-2.87,-101.55,24.41
20080,23.16,1012.46,9.77,9.64,0.02,0.05,0.98,-5.25,0.89,-4.66,7.71,-2.89,-101.69,24.9
20112,23.15,1012.43,9.77,9.66,0.02,0.05,0.97,-5.33,2.29,-4.89,7.71,-2.87,-101.85,24.41
20146,23.15,1012.43,9.77,9.69,0.01,0.05,0.98,-5.39,2.07,-4.76,7.7,-2.83,-102.01,24.9
20177,23.15,1012.43,9.77,9.7,0.02,0.05,0.98,-5.12,1.56,-4.73,7.7,-2.83,-102.15,24.41
20208,23.16,1012.41,9.95,9.75,0.01,0.05,0.98,-4.92,1.24,-4.63,7.71,-2.83,-102.3,24.9
20240,23.16,1012.41,9.95,9.79,0.02,0.05,0.97,-5.64,0.92,-4.71,7.7,-2.85,-102.45,24.41
20272,23.16,1012.41,9.95,9.83,0.03,0.05,0.97,-5.36,2.8,-4.86,7.7,-2.83,-102.6,24.41
20305,23.16,1012.43,9.78,9.82,0.02,0.06,0.98,-5.73,0.4,-4.83,7.68,-2.86,-102.76,24.41
20336,23.16,1012.43,9.78,9.81,0.03,0.05,0.98,-5.56,0.98,-4.69,7.68,-2.89,-102.91,24.9
20368,23.16,1012.43,9.78,9.8,0.02,0.05,0.98,-4.43,3.33,-4.8,7.71,-2.83,-103.06,24.41
20400,23.15,1012.41,9.98,9.84,0.03,0.06,0.98,-4.98,2.34,-4.97,7.72,-2.82,-103.22,24.41
20431,23.15,1012.41,9.98,9.87,0.02,0.05,0.98,-5.42,2.37,-4.85,7.72,-2.8,-103.38,23.93
20463,23.15,1012.41,9.98,9.89,0.01,0.06,0.98,-5.42,1.88,-4.79,7.73,-2.78,-103.53,24.41
20497,23.15,1012.44,9.73,9.86,0.03,0.05,0.98,-5.33,1.36,-4.62,7.71,-2.79,-103.68,24.9
20529,23.15,1012.44,9.73,9.83,0.02,0.05,0.98,-5.07,2.48,-4.8,7.72,-2.76,-103.84,24.41
20561,23.15,1012.44,9.73,9.81,0.02,0.05,0.98,-5.47,1.88,-4.86,7.71,-2.75,-103.99,24.9
20592,23.15,1012.41,9.91,9.83,0.02,0.05,0.98,-5.22,1.18,-4.56,7.72,-2.77,-104.13,24.41
20624,23.15,1012.41,9.91,9.85,0.02,0.05,0.98,-5.51,0.2,-4.69,7.71,-2.81,-104.28,24.9
20656,23.15,1012.41,9.91,9.86,0.02,0.04,0.98,-5.39,1.13,-4.77,7.7,-2.82,-104.44,24.41
20689,23.15,1012.4,10.04,9.9,0.01,0.06,0.99,-5.38,2.36,-4.83,7.69,-2.79,-104.6,24.41
20720,23.15,1012.4,10.04,9.93,0.02,0.05,0.98,-5.27,1.68,-4.88,7.7,-2.78,-104.75,24.9
20752,23.15,1012.4,10.04,9.95,0.02,0.05,0.98,-5.38,2.39,-4.97,7.69,-2.75,-104.91,24.41
20784,23.15,1012.41,9.98,9.96,0.02,0.05,0.98,-5.18,0.77,-4.79,7.7,-2.78,-105.06,23.44
20815,23.15,1012.41,9.98,9.96,0.02,0.05,0.99,-5.32,0.86,-4.54,7.69,-2.8,-105.2,24.41
20847,23.15,1012.41,9.98,9.96,0.02,0.05,0.98,-5.39,1.01,-4.82,7.69,-2.82,-105.35,23.93
20881,23.15,1012.39,10.07,9.99,0.01,0.06,0.98,-5.44,1.15,-4.73,7.68,-2.82,-105.51,23.44
20913,23.15,1012.39,10.07,10,0.02,0.05,0.97,-5.39,1.45,-4.82,7.68,-2.82,-105.67,25.39
20945,23.15,1012.39,10.07,10.02,0.02,0.05,0.99,-5.41,2.51,-4.98,7.67,-2.79,-105.83,24.41
20976,23.16,1012.4,9.99,10.01,0.01,0.05,0.98,-5.42,0.95,-4.79,7.67,-2.8,-105.98,24.41
21008,23.16,1012.4,9.99,10.01,0.03,0.05,0.98,-5.21,1.41,-4.59,7.68,-2.82,-106.12,23.44
21040,23.16,1012.4,9.99,10.01,0.02,0.06,0.99,-5.1,1.71,-4.65,7.69,-2.81,-106.27,24.9
21073,23.16,1012.4,9.99,10,0.02,0.06,0.99,-5.42,0.69,-4.82,7.68,-2.84,-106.43,24.41
21104,23.16,1012.4,9.99,10,0.02,0.05,0.98,-5.38,1.88,-4.79,7.68,-2.82,-106.58,24.9
21136,23.16,1012.4,9.99,10,0.01,0.05,0.99,-5.56,1.06,-4.73,7.67,-2.83,-106.73,24.41
21168,23.16,1012.4,10.05,10.01,0.02,0.05,0.98,-5.59,0.58,-4.91,7.66,-2.87,-106.89,23.93
21199,23.16,1012.4,10.05,10.02,0.02,0.05,0.97,-4.9,2.52,-4.56,7.67,-2.84,-107.03,23.44
21233,23.16,1012.4,10.05,10.02,0.02,0.05,0.99,-5.38,2.14,-4.68,7.66,-2.83,-107.19,25.39
21265,23.16,1012.42,9.85,9.99,0.02,0.06,0.99,-5.09,2.19,-4.8,7.67,-2.81,-107.34,24.9
21297,23.16,1012.42,9.85,9.96,0.01,0.05,0.98,-5.19,1.45,-4.82,7.67,-2.8,-107.5,24.41
21329,23.16,1012.42,9.85,9.94,0.02,0.05,0.99,-5.24,1.18,-4.8,7.67,-2.82,-107.65,23.93
21360,23.16,1012.44,9.66,9.89,0.02,0.04,0.99,-5.48,1.3,-4.74,7.66,-2.83,-107.8,24.9
21392,23.16,1012.44,9.66,9.84,0.02,0.04,0.98,-5.74,1.47,-4.79,7.64,-2.83,-107.95,24.9
21426,23.16,1012.44,9.66,9.81,0.02,0.05,0.98,-5.47,1.5,-4.85,7.62,-2.84,-108.11,24.9
21457,23.16,1012.42,9.89,9.82,0.03,0.05,0.98,-5.3,1.88,-4.85,7.62,-2.84,-108.26,23.93
21488,23.16,1012.42,9.89,9.84,-0.01,0.05,0.99,-5.25,1.47,-4.53,7.63,-2.8,-108.4,24.41
21520,23.16,1012.42,9.89,9.85,0.02,0.05,0.98,-5.35,1.2,-4.37,7.63,-2.82,-108.54,24.9
21552,23.16,1012.41,9.94,9.87,0.03,0.04,0.98,-5.16,1.07,-4.54,7.62,-2.85,-108.69,24.41
21583,23.16,1012.41,9.94,9.88,0.02,0.05,0.97,-5.19,2.54,-5.02,7.62,-2.82,-108.85,24.41
21617,23.16,1012.41,9.94,9.89,0.02,0.05,0.97,-5.19,1.29,-4.71,7.62,-2.82,-109.01,23.93
21649,23.16,1012.43,9.81,9.87,0.02,0.05,0.99,-5.5,0.98,-4.76,7.62,-2.84,-109.16,24.41
21681,23.16,1012.43,9.81,9.86,0.02,0.05,0.98,-5.67,0.51,-4.92,7.61,-2.87,-109.32,24.9
21713,23.16,1012.43,9.81,9.85,0.03,0.01,0.98,-4.9,3.81,-2.04,7.58,-2.81,-109.38,24.9
21744,23.16,1012.41,9.95,9.87,0.05,0.04,0.92,-4.26,4.39,-4.91,7.61,-2.77,-109.53,24.9
21776,23.16,1012.41,9.95,9.89,0.04,0.04,0.88,-4.7,0.69,-19.24,7.62,-2.82,-110.15,24.41
21810,23.16,1012.41,9.95,9.9,0.01,0.05,0.97,-4.98,0.54,-10.13,7.61,-2.84,-110.49,24.41
21841,23.16,1012.39,10.11,9.94,0,0.06,1.04,-5.93,-1.97,-4.39,7.61,-2.92,-110.63,24.41
21872,23.16,1012.39,10.11,9.98,0.04,0.06,0.97,-7.82,-2.22,2.07,7.55,-3.05,-110.57,24.9
21904,23.16,1012.39,10.11,10,0.07,0.02,0.94,-5.61,0.81,-4.65,7.51,-3.14,-110.71,24.41
21936,23.16,1012.41,9.98,10,0.02,0.05,0.99,-1.47,11.71,-3.32,7.63,-2.82,-110.82,24.41
21969,23.16,1012.41,9.98,9.99,0.06,0.04,0.98,-5.45,2.91,-5.05,7.6,-2.82,-110.99,24.41
22000,23.16,1012.41,9.98,9.99,0.02,0.05,0.99,-5.56,0.42,-4.6,7.61,-2.86,-111.13,24.9
22032,23.16,1012.4,10.01,10,0.05,0.03,0.97,-5.79,1.12,2.22,7.57,-2.92,-111.06,23.44
22064,23.16,1012.4,10.01,10,0.06,0.03,0.96,-5.86,1.87,-2.21,7.53,-2.95,-111.13,23.93
22095,23.16,1012.4,10.01,10,-0.08,0.06,1.02,-4.89,4.16,-4.88,7.55,-2.75,-111.29,23.93
22127,23.16,1012.45,9.62,9.93,-0.02,0.06,0.99,-5.21,0.94,-4.68,7.57,-2.72,-111.43,24.9
22161,23.16,1012.45,9.62,9.87,0,0.07,0.99,-6.03,-1.66,-4.33,7.55,-2.81,-111.58,24.9
22193,23.16,1012.45,9.62,9.82,0.03,0.05,0.98,-6.38,-1.51,-1.78,7.51,-2.92,-111.63,24.41
22225,23.16,1012.4,10.06,9.87,0.05,0.03,0.96,-4.96,1.9,-3.55,7.5,-2.95,-111.75,24.9
22256,23.16,1012.4,10.06,9.9,0.01,0.04,0.98,-3.88,4.84,-4.56,7.55,-2.85,-111.89,24.41
22288,23.16,1012.4,10.06,9.93,0.03,0.04,0.98,-4.98,2.39,-4.91,7.54,-2.83,-112.05,24.9
22320,23.16,1012.41,9.93,9.93,0.03,0.06,0.97,-5.25,2.34,-4.68,7.55,-2.82,-112.2,24.41
22353,23.16,1012.41,9.93,9.93,0.02,0.05,0.99,-5.33,1.93,-4.82,7.55,-2.8,-112.36,24.9
22384,23.16,1012.41,9.93,9.93,0.01,0.05,0.99,-5.32,2.89,-4.86,7.56,-2.76,-112.51,24.9
22416,23.16,1012.4,9.99,9.94,0.01,0.04,0.97,-5.19,0.77,-4.56,7.56,-2.77,-112.65,23.93
22448,23.16,1012.4,9.99,9.95,0.02,0.05,0.99,-5.48,-0.01,-4.45,7.55,-2.82,-112.79,24.41
22479,23.16,1012.4,9.99,9.96,0.02,0.04,0.99,-5.48,0.97,-4.85,7.54,-2.85,-112.95,24.9
22511,23.16,1012.42,9.88,9.94,0.01,0.06,0.98,-5.96,0.1,-4.83,7.54,-2.89,-113.1,24.41
22648,23.17,1012.44,9.7,9.9,0.03,0.05,0.97,-5.21,2.11,-4.94,7.01,-2.67,-113.78,23.44
22680,23.17,1012.44,9.7,9.86,0.02,0.04,0.99,-5.18,2.37,-4.92,7.02,-2.64,-113.93,24.41
22712,23.16,1012.43,9.81,9.85,0.02,0.06,0.98,-5.15,1.24,-4.71,7.04,-2.66,-114.08,24.9
22743,23.16,1012.43,9.81,9.84,0.02,0.05,0.97,-5.36,0.55,-4.53,7.06,-2.69,-114.22,24.9
22774,23.16,1012.43,9.81,9.83,0.02,0.05,0.97,-5.38,1.1,-4.74,7.07,-2.71,-114.37,24.9
22806,23.17,1012.42,9.89,9.84,0.02,0.05,0.97,-5.32,1.59,-4.85,7.09,-2.71,-114.53,24.9
22840,23.17,1012.42,9.89,9.85,0.02,0.06,0.99,-5.44,1.59,-4.69,7.09,-2.71,-114.69,24.9
22871,23.17,1012.42,9.89,9.86,0.03,0.06,0.97,-4.9,1.36,-4.44,7.13,-2.73,-114.82,24.9
22902,23.16,1012.4,10,9.89,0.04,0.05,0.98,-5.3,1.67,-4.71,7.14,-2.75,-114.97,24.9
22934,23.16,1012.4,10,9.91,0.02,0.06,0.99,-5.15,2.6,-5.05,7.16,-2.72,-115.13,25.39
22966,23.16,1012.4,10,9.93,0.02,0.05,0.99,-5.36,1.81,-4.86,7.17,-2.72,-115.29,23.93
22999,23.17,1012.41,9.94,9.93,0.02,0.05,0.98,-5.39,1.76,-4.83,7.17,-2.71,-115.45,23.93
23030,23.17,1012.41,9.94,9.93,0.02,0.06,0.98,-5.21,1.16,-4.68,7.2,-2.72,-115.59,24.9
23062,23.17,1012.41,9.94,9.94,0.02,0.05,0.97,-5.22,1.41,-4.56,7.21,-2.74,-115.74,24.9
23094,23.17,1012.45,9.59,9.87,0.02,0.05,0.99,-5.5,1.64,-4.5,7.21,-2.74,-115.88,24.9
23125,23.17,1012.45,9.59,9.81,0.02,0.05,0.98,-5.61,1.42,-4.76,7.21,-2.75,-116.03,24.9
23156,23.17,1012.45,9.59,9.77,0.03,0.05,0.98,-5.13,1.56,-4.71,7.23,-2.76,-116.17,24.9
23190,23.17,1012.42,9.86,9.79,0.01,0.05,0.98,-5.3,2.19,-5.05,7.23,-2.73,-116.35,24.9
23222,23.17,1012.42,9.86,9.8,0.02,0.06,0.97,-5.36,1.73,-4.91,7.24,-2.72,-116.5,24.9
23253,23.17,1012.42,9.86,9.81,0.02,0.05,0.98,-5.28,1.33,-4.79,7.26,-2.73,-116.65,23.44
23284,23.17,1012.44,9.71,9.79,0.01,0.04,0.98,-5.41,1.52,-4.76,7.26,-2.73,-116.8,24.41
23316,23.17,1012.44,9.71,9.77,0.03,0.05,0.98,-5.38,1.9,-5,7.26,-2.73,-116.96,24.41
23348,23.17,1012.44,9.71,9.76,0.02,0.05,0.98,-5.18,1.76,-4.6,7.28,-2.73,-117.11,23.93
23381,23.17,1012.42,9.88,9.78,0.02,0.05,0.98,-5.13,1.53,-4.65,7.28,-2.73,-117.26,24.41
23412,23.17,1012.42,9.88,9.8,0.02,0.05,0.98,-5.12,1.03,-4.68,7.3,-2.74,-117.4,24.41
23444,23.17,1012.42,9.88,9.82,0.02,0.05,0.98,-5.16,1.42,-4.68,7.31,-2.75,-117.55,24.41
23476,23.17,1012.42,9.86,9.83,0.01,0.04,0.97,-5.56,1.71,-4.88,7.31,-2.74,-117.71,24.9
23507,23.17,1012.42,9.86,9.83,0.01,0.05,0.98,-5.01,2.58,-4.94,7.32,-2.7,-117.86,25.39
23538,23.17,1012.42,9.86,9.84,0.01,0.05,0.99,-5.15,1.93,-4.76,7.33,-2.69,-118.01,24.41
23572,23.17,1012.43,9.74,9.82,0.02,0.05,0.97,-5.19,1.44,-4.79,7.33,-2.7,-118.17,24.41
23604,23.17,1012.43,9.74,9.8,0.03,0.05,0.98,-5.28,0.51,-4.53,7.34,-2.74,-118.32,24.9
23635,23.17,1012.43,9.74,9.79,0.02,0.05,0.99,-5.3,1.91,-4.89,7.35,-2.73,-118.47,24.9
23666,23.17,1012.41,9.95,9.82,0.01,0.05,0.98,-5.32,1.94,-4.94,7.36,-2.72,-118.62,24.41
23698,23.17,1012.41,9.95,9.85,0.01,0.05,0.99,-5.24,1.78,-4.63,7.37,-2.7,-118.77,24.41
23730,23.17,1012.41,9.95,9.87,0.02,0.05,0.99,-5.21,0.71,-4.48,7.38,-2.73,-118.91,24.41
23763,23.17,1012.44,9.72,9.84,0.02,0.04,0.99,-5.5,-0.39,-0.44,7.36,-2.79,-118.93,23.93
23794,23.17,1012.44,9.72,9.82,0.03,0.03,0.97,-5.62,-0.33,-1.47,7.34,-2.86,-118.97,24.9
23826,23.17,1012.44,9.72,9.8,0.03,0.04,0.97,-5.35,1.87,-4.15,7.33,-2.86,-119.11,24.9
23858,23.17,1012.4,10.07,9.85,0.01,0.05,0.98,-5.44,1.27,-4.66,7.32,-2.86,-119.26,25.39
23889,23.17,1012.4,10.07,9.9,0.02,0.04,0.97,-5.15,1.1,-0.36,7.33,-2.87,-119.27,23.93
23922,23.17,1012.4,10.07,9.93,0.05,0.04,0.97,-5.5,3.09,-2.59,7.31,-2.86,-119.35,23.93
23954,23.17,1012.43,9.8,9.9,0.03,0.05,0.98,-5.5,2.34,-4.68,7.31,-2.84,-119.5,24.41
23986,23.17,1012.43,9.8,9.88,0.02,0.05,0.98,-5.24,1.68,-4.83,7.32,-2.84,-119.66,25.39
24017,23.17,1012.43,9.8,9.86,0.03,0.07,0.98,-5.21,1.93,-4.27,7.35,-2.84,-119.79,23.93
24048,23.17,1012.43,9.85,9.86,0.02,0.05,0.97,-5.32,1.59,-5.06,7.36,-2.85,-119.95,24.9
24080,23.17,1012.42,9.85,9.86,0.01,0.05,0.97,-5.15,2.07,-4.95,7.37,-2.82,-120.11,24.41
24120,23.17,1012.42,9.85,9.86,0.03,0.05,0.99,-5.42,1.64,-4.73,7.33,-2.82,-120.29,24.41
24151,23.17,1012.43,9.77,9.84,0.01,0.06,0.97,-5.01,2.52,-4.69,7.36,-2.78,-120.44,23.93
24182,23.17,1012.43,9.77,9.83,0.02,0.06,0.97,-5.03,1.32,-4.65,7.39,-2.8,-120.58,24.9
24214,23.17,1012.43,9.77,9.81,0.01,0.05,0.98,-5.38,1.07,-4.74,7.39,-2.8,-120.74,24.9
24246,23.17,1012.44,9.71,9.79,0.03,0.06,0.98,-5.42,2.4,-4.69,7.4,-2.78,-120.89,24.9
24277,23.17,1012.44,9.71,9.78,0.02,0.06,0.98,-5.04,1.76,-4.71,7.42,-2.78,-121.03,23.44
24310,23.17,1012.44,9.71,9.76,0.03,0.05,0.97,-5.16,2.46,-4.83,7.43,-2.76,-121.19,23.93
24342,23.17,1012.42,9.88,9.79,0.01,0.05,0.98,-5.36,1.52,-4.57,7.43,-2.75,-121.34,23.93
24374,23.17,1012.42,9.88,9.8,0.02,0.05,0.98,-5.33,1.24,-4.48,7.43,-2.76,-121.48,24.41
24405,23.17,1012.42,9.88,9.82,0.03,0.06,0.98,-5.06,2.42,-4.74,7.45,-2.74,-121.63,24.41
24436,23.17,1012.41,9.93,9.84,0.04,0.05,0.98,-5.27,4.6,-4.8,7.46,-2.68,-121.78,24.41
24468,23.17,1012.41,9.93,9.86,0,0.05,1,-4.98,7.56,-4.53,7.48,-2.47,-121.92,24.9
24502,23.17,1012.41,9.93,9.87,0.01,0.02,0.99,-4.87,3.27,-8.51,7.45,-2.41,-122.21,24.9
24533,23.17,1012.43,9.77,9.85,0.04,0.05,0.97,-4.66,4.57,-11.55,7.48,-2.36,-122.57,24.9
24564,23.17,1012.43,9.77,9.83,-0.01,0.04,1.01,13.81,12.78,11.24,8.06,-1.99,-122.22,24.41
24596,23.17,1012.43,9.77,9.82,0.02,0.08,1,29.19,18.69,21.23,9.16,-1.47,-121.54,24.9
24628,23.17,1012.43,9.77,9.81,0.03,0.04,0.99,42.5,28.32,17.43,10.62,-0.67,-120.98,24.41
24659,23.17,1012.4,10.03,9.85,-0.06,0.02,1.03,105.57,51.74,39.9,13.9,0.9,-119.75,23.93
24692,23.17,1012.4,10.03,9.89,-0.03,0.21,1.36,204.93,95.27,102.51,20.68,3.91,-116.36,23.44
24724,23.17,1012.4,10.03,9.92,-0.02,0.37,0.87,277.85,192.03,95.49,29.7,9.79,-113.31,24.9
24756,23.17,1012.42,9.85,9.91,-0.28,0.55,0.95,325.98,173.9,103.46,40.17,15.25,-110,24.41
24787,23.17,1012.42,9.85,9.89,-0.27,0.59,0.56,271.1,88.11,62.43,48.74,17.9,-108.06,24.41
24818,23.17,1012.42,9.85,9.89,-0.21,0.57,0.49,291.59,53.01,89.53,57.82,19.39,-105.29,24.41
24852,23.17,1012.42,9.87,9.88,-0.05,0.83,0.4,384.26,96.52,86.91,71,22.19,-102.33,24.41
24884,23.17,1012.42,9.87,9.88,-0.05,0.92,0.13,320.97,133.52,56.85,81.53,25.92,-100.51,24.41
24915,23.17,1012.42,9.87,9.88,-0.21,0.83,0.1,391.91,147.07,75.99,93.55,30.07,-98.16,24.9
24946,23.17,1012.44,9.72,9.85,-0.1,0.86,-0.07,471.04,99.45,86.11,108.21,26.5,-95.49,24.41
24978,23.17,1012.44,9.72,9.82,0.08,1.27,-0.62,309.54,90.2,32.4,118.34,22.99,-94.45,23.93
25010,23.17,1012.44,9.72,9.8,-0.05,1.04,-0.64,148.27,90.58,-13.95,123.31,19.65,-94.9,24.9
25043,23.15,1012.38,10.17,9.87,-0.09,1.03,-0.56,93.07,45.64,56.19,126.49,17.79,-93.04,23.93
25074,23.15,1012.38,10.17,9.93,0.23,0.69,-0.98,75.59,53.91,-15.14,129.43,15.49,-93.51,24.41
25106,23.15,1012.38,10.17,9.98,-0.06,0.9,-0.85,73.45,92.11,16.95,132.07,12.27,-92.97,24.9
25138,23.17,1012.42,9.84,9.95,0.03,0.77,-0.77,64.23,63.97,34.27,134.4,9.9,-91.87,24.9
25169,23.17,1012.42,9.84,9.93,0.13,0.68,-0.95,61.72,58.92,27.38,136.74,7.7,-91.02,23.93
25202,23.17,1012.42,9.84,9.91,0.07,0.74,-0.76,46.67,32.29,37.09,138.49,6.34,-89.8,24.41
25234,23.15,1012.37,10.27,9.98,0.25,0.57,-0.8,45.86,6.29,23.9,140.33,5.64,-89.03,24.41
25266,23.15,1012.37,10.27,10.04,0.22,0.61,-0.83,-11.57,27.88,5.09,140.31,4.33,-88.87,24.9
25297,23.15,1012.37,10.27,10.09,0.2,0.69,-0.83,28.81,4.19,13.32,141.46,3.83,-88.46,24.41
25328,23.17,1012.42,9.86,10.04,0.18,0.66,-0.87,-22.9,-25.57,-0.08,141.07,4.25,-88.46,24.9
25360,23.17,1012.42,9.86,10,0.28,0.75,-0.92,-74.48,-24.68,-10.62,139.01,4.59,-88.8,24.41
25394,23.17,1012.42,9.86,9.97,0.21,0.56,-0.76,-71.18,-2.99,-36.27,137,4.27,-90.03,24.41
25425,23.16,1012.39,10.12,10,0.17,0.86,-0.72,-102.52,-24.03,-29.73,134.02,4.65,-90.96,24.9
25456,23.16,1012.39,10.12,10.03,0.21,0.56,-0.79,-181.22,-22.09,-36.8,129.01,4.91,-92.1,24.41
25488,23.16,1012.39,10.12,10.05,0.15,0.54,-0.38,-35.74,-18.99,-0.83,128.11,5.07,-92.12,23.44
25520,23.16,1012.4,10.07,10.05,0.25,0.79,-0.53,32.2,-12.19,34.71,129.35,4.98,-91.01,24.9
25553,23.16,1012.4,10.07,10.05,0.17,0.95,-0.57,-56.34,-0.04,43.69,127.64,4.62,-89.57,24.41
25584,23.16,1012.4,10.07,10.06,0.13,0.74,-0.47,-27.85,-53.37,54.16,126.97,5.9,-87.89,24.41
25616,23.16,1012.41,9.91,10.03,0.24,0.97,-0.63,-26.2,-47.98,47.58,126.36,6.97,-86.37,24.41
25648,23.16,1012.41,9.91,10,0.27,1.09,-0.72,-145.12,-17.22,23.76,122.05,7.06,-85.61,23.93
25679,23.16,1012.41,9.91,9.99,0.25,1.21,-0.7,-299.13,-4.06,13.09,112.92,6.76,-85.19,24.9
25711,23.16,1012.42,9.89,9.97,0.21,1.16,-0.48,-455.48,14,-14.89,99.37,5.93,-85.65,24.41
25745,23.16,1012.42,9.89,9.95,0.17,1.22,-0.33,-503.13,-12.15,-88.16,83.01,5.98,-88.65,24.41
25777,23.16,1012.42,9.89,9.94,0.34,0.88,-0.16,-503.13,-71.9,-142.28,68.09,7.62,-93.2,24.41
25809,23.15,1012.39,10.08,9.97,0.54,0.69,0.32,-503.13,-43.92,-144.54,52.16,5.31,-97.83,24.9
25840,23.15,1012.39,10.08,9.99,0,-0.23,0.84,-243.99,92.42,-89.47,43.66,7.92,-100.6,24.41
25872,23.15,1012.39,10.08,10.01,-0.35,0.27,1.2,-49.09,5.21,-23.37,41.75,8.16,-101.35,24.9
25906,23.16,1012.41,9.94,10,-0.04,0.53,0.82,-170.51,-35.58,-65.63,36.15,6.78,-103.58,24.9
25937,23.16,1012.41,9.94,9.98,-0.04,0.16,1.04,-114.46,-4.27,-62.01,32.38,6.47,-105.5,24.41
25968,23.16,1012.41,9.94,9.98,-0.03,0.22,0.94,6.62,26.02,-13.08,32.46,7.09,-105.91,24.41
26000,23.16,1012.42,9.85,9.95,-0.09,0.27,0.93,-4.17,19.33,-6.73,32.26,7.58,-106.12,24.41
26032,23.16,1012.42,9.85,9.93,0,0.35,0.89,-7.62,18.13,-10.27,32.07,7.91,-106.45,24.41
26063,23.16,1012.42,9.85,9.91,0,0.42,0.95,-94.41,0.29,-41.82,29.2,7.67,-107.79,24.41
26097,23.17,1012.44,9.66,9.86,0.03,0.14,0.92,-73.85,27.3,-56.02,26.66,8.27,-109.64,23.93
26129,23.17,1012.44,9.66,9.82,-0.08,0.14,0.92,-67.35,25.12,-41.27,24.45,8.91,-110.96,24.9
26161,23.17,1012.44,9.66,9.79,-0.09,0.1,0.98,-93.88,-38.27,-38.8,21.4,7.55,-112.2,24.41
26193,23.17,1012.42,9.89,9.81,0.04,0.04,0.91,-111.48,-39.52,-57.02,17.78,6.02,-114.03,24.41
26224,23.17,1012.42,9.89,9.82,0.02,-0.01,0.99,-53.12,18.19,-28.69,16.07,6.34,-114.92,24.41
26258,23.17,1012.42,9.89,9.84,-0.06,0,0.98,-2.54,13.39,4.34,15.92,6.65,-114.77,24.9
26290,23.16,1012.4,10.04,9.88,-0.05,0.03,0.91,-2.92,10.65,-6.11,15.81,6.82,-114.96,24.9
26321,23.16,1012.4,10.04,9.91,-0.08,0.13,1,-27.06,12.26,-13.23,15.08,7.07,-115.37,24.41
26352,23.16,1012.4,10.04,9.93,-0.11,-0.04,1,-26.78,-2.38,-30.94,14.17,6.89,-116.33,23.93
26384,23.16,1012.42,9.83,9.91,0,-0.03,0.96,-16.61,12.42,-45.11,13.59,7.06,-117.78,24.41
26416,23.16,1012.42,9.83,9.9,-0.04,-0.04,0.95,23.81,32.72,-7.14,14.28,7.91,-118,24.9
26449,23.16,1012.42,9.83,9.88,-0.18,0.09,0.99,19.54,-5,-11.7,14.98,7.72,-118.39,24.41
26480,23.16,1012.4,10.04,9.91,-0.03,-0.02,1,-11.9,-35.49,-35.21,14.55,6.44,-119.48,23.44
26512,23.16,1012.4,10.04,9.94,0.01,-0.01,0.94,9.51,-17.98,-12.74,14.81,5.65,-119.89,24.9
26544,23.16,1012.4,10.04,9.96,-0.04,-0.02,0.97,17.17,-21.66,-12.48,15.29,4.82,-120.29,24.41
26575,23.16,1012.4,10.07,9.98,0.03,-0.04,1,1.46,-15.51,-14.51,15.24,4.12,-120.75,24.41
26607,23.16,1012.4,10.07,10,0,-0.06,1.07,0.72,-3.39,-10.86,15.16,3.86,-121.09,23.93
26641,23.16,1012.4,10.07,10.01,-0.05,0.04,1.05,-7.22,1.3,-11.86,14.92,3.79,-121.49,24.9
26673,23.16,1012.4,10.05,10.02,-0.06,0.01,1.01,-30.29,-1.55,-25.61,13.94,3.64,-122.31,25.39
26705,23.16,1012.4,10.05,10.02,-0.03,0.01,0.99,-45.56,-6.13,-34.73,12.5,3.33,-123.42,23.93
26736,23.16,1012.4,10.05,10.03,-0.03,-0.07,1.01,-35.64,-6.85,-24.5,11.34,3,-124.18,24.9
26768,23.16,1012.41,9.97,10.02,0.02,-0.03,0.97,7.31,8.28,2.88,11.57,3.1,-124.09,24.9
26802,23.16,1012.41,9.97,10.01,-0.04,-0.01,1,1.68,0.4,1.81,11.64,3.01,-124.03,24.9
26833,23.16,1012.41,9.97,10,-0.04,-0.03,1,6.18,-5.8,1.08,11.83,2.74,-124,23.93
26864,23.16,1012.4,9.99,10,-0.03,-0.02,1.06,43.78,0.6,24.14,13.16,2.65,-123.25,24.41
26896,23.16,1012.4,9.99,10,-0.09,-0.11,1.08,100.33,6.02,24.48,16.19,2.79,-122.47,24.9
26928,23.16,1012.4,9.99,10,-0.2,-0.26,1.06,428.5,-9.8,158.74,29.29,2.56,-117.39,23.93
26959,23.16,1012.4,10.01,10,0.05,0.14,0.7,497.4,-8.27,173.08,44.79,2.09,-111.85,24.9
26993,23.16,1012.4,10.01,10,0.23,0.36,0.14,497.4,-46.7,131.17,61.3,-0.16,-107.52,24.9
27025,23.16,1012.4,10.01,10,0.15,0.69,-0.11,497.4,-66.53,63.95,78.03,1.61,-105.47,25.39
27057,23.16,1012.39,10.15,10.03,0.42,2.04,-0.25,467.91,-58.06,-20.59,93.47,3.08,-106.13,24.41
检测到起飞!,,,,,,,,,,,,,,
27096,23.16,1012.39,10.15,10.06,0.02,1.72,-0.55,-157.74,9.73,9.93,87.99,2.55,-105.74,24.9
27127,23.16,1012.39,10.15,10.08,0.09,1.38,-0.19,-414.78,-1.95,-5.95,75.87,2.39,-105.93,23.44
27161,23.15,1012.36,10.39,10.14,0.56,1.19,-0.26,-503.13,97.38,-48.37,60.19,-1.47,-107.57,24.41
27193,23.15,1012.36,10.39,10.19,0.03,0.46,0.26,-503.13,58.78,-157.58,44.67,0.24,-112.62,24.9
27224,23.15,1012.36,10.39,10.23,0.25,0,0.24,-503.13,44.11,-210.07,28.73,0.56,-119.13,25.39
27255,23.16,1012.38,10.16,10.21,0.09,-0.56,0.76,-263.41,114.25,-102.39,19.69,3.83,-122.3,24.41
27288,23.16,1012.38,10.16,10.2,-0.23,-0.17,1.19,31.72,106.42,22.43,20.42,7.33,-121.56,24.9
27322,23.16,1012.38,10.16,10.19,-0.18,0.1,0.93,16.58,58.94,20.45,20.94,9.28,-120.87,24.41
27353,23.16,1012.42,9.83,10.12,-0.21,0.05,0.93,-5.33,15.97,11.9,20.68,9.75,-120.5,24.9
27384,23.16,1012.42,9.83,10.06,-0.15,0.07,0.91,-15.68,-12.58,12.27,20.13,9.28,-120.12,23.93
27416,23.16,1012.42,9.83,10.02,-0.08,0.06,0.92,-41.82,-16.3,-33.12,18.76,8.6,-121.18,24.9
27448,23.16,1012.38,10.17,10.05,-0.19,0.08,1.05,-47.19,-15.35,-44.31,17.25,8.07,-122.59,23.93
27479,23.16,1012.38,10.17,10.07,-0.13,0.1,1,-12.03,-21.92,-9.23,16.91,7.31,-122.88,24.9
27512,23.16,1012.38,10.17,10.09,-0.1,0.08,1,-14.77,-15.09,2.21,16.45,6.71,-122.81,23.93
27544,23.16,1012.38,10.19,10.11,-0.16,0.11,0.93,-19.48,0.92,-12.94,15.9,6.71,-123.22,23.44
27576,23.16,1012.38,10.19,10.13,-0.13,0.05,0.95,-13.57,-0.22,-22.85,15.47,6.64,-123.95,25.39
27607,23.16,1012.38,10.19,10.14,-0.07,-0.01,0.94,-9.36,4.28,-15.67,15.12,6.64,-124.44,24.9
27638,23.16,1012.41,9.98,10.11,-0.14,0,0.93,-27.07,12.22,-29.21,14.25,6.96,-125.34,24.41
27672,23.16,1012.41,9.98,10.08,-0.13,-0.02,0.92,-17.12,4.25,-35.17,13.63,7.04,-126.54,24.9
27704,23.16,1012.41,9.98,10.06,-0.06,0.01,0.97,-5.01,-0.33,-17.98,13.46,6.89,-127.12,23.93
27735,23.16,1012.4,10.02,10.05,-0.17,-0.02,0.98,-23.88,-2.18,-19.38,12.7,6.8,-127.72,23.93
27766,23.16,1012.4,10.02,10.05,-0.18,0,0.96,-10.31,7.64,-31.43,12.4,7.02,-128.69,23.93
27798,23.16,1012.4,10.02,10.04,-0.19,0.03,1.04,-8.9,3.61,-34.28,12.16,7.12,-129.79,23.93
27830,23.17,1012.42,9.85,10,-0.21,0.08,1,-8.89,31.52,-46.68,11.99,8.11,-131.28,24.41
27863,23.17,1012.42,9.85,9.97,-0.1,-0.03,0.95,4.88,10.61,-30.95,12.13,8.33,-132.3,24.41
27894,23.17,1012.42,9.85,9.95,-0.08,-0.03,0.94,7.54,-12.64,-19.78,12.34,7.79,-132.92,24.9
27926,23.17,1012.41,9.97,9.95,-0.11,-0.01,1.01,17.89,-14.93,8.53,12.9,7.21,-132.64,24.9
27958,23.17,1012.41,9.97,9.96,-0.08,0,0.97,7.4,-6,3.61,13.13,6.89,-132.53,23.44
27989,23.17,1012.41,9.97,9.96,0.09,0.35,0.12,18.5,13.01,38.43,15.04,6.8,-131.34,23.93
28022,23.17,1012.43,9.82,9.93,-0.21,0.02,0.98,-8.89,10.69,-9.72,14.74,7.18,-131.66,24.41
28054,23.17,1012.43,9.82,9.91,-0.12,-0.03,0.96,-2.06,-7.57,-6.95,14.59,6.86,-131.88,23.93
28086,23.17,1012.43,9.82,9.89,-0.09,-0.01,0.89,28.21,-6.76,29.29,15.43,6.54,-130.94,24.9
28117,23.17,1012.42,9.9,9.89,0.46,-0.43,-0.77,-14.52,16.81,15.76,11.85,5.27,-130.45,24.9
28148,23.17,1012.42,9.9,9.89,-0.15,-0.01,1.06,-5.06,-11.93,-6.25,11.72,4.88,-130.65,24.9
28180,23.17,1012.42,9.9,9.89,-0.07,0.08,0.95,-4.55,-0.48,-7.67,11.7,4.77,-130.89,24.9
28214,23.16,1012.42,9.9,9.89,-0.12,0.08,0.97,-4.9,0.2,-6.65,11.65,4.75,-131.12,24.41
28245,23.16,1012.42,9.9,9.9,-0.09,0.06,0.96,-5.03,-1.48,-4.77,11.59,4.63,-131.27,24.41
28276,23.16,1012.42,9.9,9.9,-0.1,0.05,0.97,-5.45,2.78,-4.69,11.51,4.66,-131.41,23.93
28308,23.16,1012.42,9.86,9.89,-0.13,0.05,0.97,-5.12,-2.64,-5.03,11.44,4.55,-131.57,24.41
28340,23.16,1012.42,9.86,9.88,-0.09,0.06,0.97,-5.38,-2.26,-4.89,11.37,4.41,-131.73,24.9
28371,23.16,1012.42,9.86,9.88,-0.09,0.05,0.97,-5.33,0.4,-4.6,11.3,4.36,-131.87,23.93
28404,23.16,1012.42,9.93,9.89,-0.11,0.05,0.97,-4.67,3.96,-4.68,11.25,4.44,-132.03,24.41
28436,23.16,1012.41,9.93,9.9,-0.12,0.04,0.97,-4.55,-0.5,-10.53,11.18,4.39,-132.36,24.9
28468,23.16,1012.41,9.93,9.9,-0.11,0.06,0.96,-4.58,-2.29,-11.52,11.15,4.28,-132.73,24.9
28499,23.16,1012.41,9.93,9.91,-0.09,0.03,0.98,-3.48,-0.97,-14.01,11.12,4.18,-133.17,24.9
28530,23.16,1012.4,10,9.93,-0.06,-0.06,1,23.33,3.5,5.95,11.79,4.2,-132.98,23.44
28564,23.16,1012.4,10,9.94,-0.12,0.07,1.04,70.29,21.61,56.63,14.23,4.89,-131.06,24.41
28596,23.16,1012.4,10,9.95,-0.2,0.13,1.07,115.52,-1.23,88.47,17.96,4.88,-128.23,23.93
28627,23.16,1012.42,9.86,9.93,-0.02,0.25,0.92,145.17,-6.56,97.6,22.58,4.53,-125.2,24.41
28658,23.16,1012.42,9.86,9.92,-0.14,0.23,1.02,146.12,-31.97,108.02,27.08,3.53,-121.85,24.41
28690,23.16,1012.42,9.86,9.91,0.02,0.41,0.9,147.19,-44.84,88.11,31.9,1.95,-119.03,23.93
28722,23.16,1012.42,9.82,9.89,-0.02,0.41,0.92,186.55,-30.48,87.18,37.86,0.9,-116.24,24.9
28755,23.16,1012.42,9.82,9.88,0.01,0.58,0.7,154.09,-41.05,60.57,43.13,-0.55,-114.24,24.41
28786,23.16,1012.42,9.82,9.87,0.09,0.63,0.74,177.81,-22.58,52.94,48.74,-1.41,-112.6,23.93
28818,23.16,1012.42,9.88,9.87,0.07,0.73,0.74,167.54,-69.48,83.84,54.17,-3.72,-109.92,24.41
28850,23.16,1012.42,9.88,9.87,0.21,0.8,0.52,110.52,-56.21,55.84,57.91,-5.74,-108.13,24.9
28881,23.16,1012.42,9.88,9.87,0.22,0.85,0.62,109.11,-65.05,57.82,61.37,-7.92,-106.34,23.93
28912,23.17,1012.4,10,9.9,0.25,0.79,0.51,79.22,-138.9,124.14,63.89,-12.36,-102.49,24.9
28946,23.17,1012.4,10,9.92,0.55,0.76,0.24,106.96,-133.28,88.79,67.47,-17.33,-99.47,24.9
28978,23.17,1012.4,10,9.94,0.53,0.98,0.5,114.5,-113.32,96.25,71.04,-21.14,-96.39,24.9
29009,23.16,1012.41,9.98,9.94,0.52,1,0.15,44.56,-86.7,66.07,72.46,-23.98,-94.34,24.9
29040,23.16,1012.41,9.98,9.95,0.5,0.99,0.28,-37.62,-134.18,68.28,71.32,-28.17,-92.23,23.93
29072,23.16,1012.41,9.98,9.96,0.72,0.68,0.19,-33.48,-81.86,53.79,69.96,-31.17,-90.51,24.41
29106,23.16,1012.41,9.9,9.95,0.45,0.68,0.16,14.49,-62.8,61.03,70.4,-33.38,-88.43,24.41
29137,23.16,1012.41,9.9,9.94,0.6,0.7,0.08,25.75,-104.85,46.65,71.02,-36.79,-86.99,23.93
29168,23.16,1012.41,9.9,9.93,0.74,0.58,0.26,74.91,-67.48,18.05,72.86,-39.18,-86.43,24.9
29200,23.17,1012.42,9.87,9.92,0.71,0.86,0.08,119.13,-33.06,4.79,76.4,-40.3,-86.27,24.41
29232,23.17,1012.42,9.87,9.91,0.75,0.61,0.08,99.31,-24.68,-14.95,79.03,-41.36,-86.75,24.41
29263,23.17,1012.42,9.87,9.9,0.68,0.76,-0.01,127.04,-41.14,0.85,84.34,-40.17,-86.72,24.9
29297,23.16,1012.41,9.98,9.92,0.8,0.89,-0.13,136.76,-65.78,-17.21,89.98,-38.15,-87.29,25.39
29329,23.16,1012.41,9.98,9.93,0.75,0.87,-0.16,137.25,-75.32,-33.73,95.37,-35.92,-88.37,24.41
29361,23.16,1012.41,9.98,9.94,0.75,0.68,-0.27,143.6,-44.7,-42.8,101.01,-34.79,-89.74,24.9
29393,23.16,1012.4,10.04,9.96,0.62,0.75,-0.33,89.97,-93.78,4.13,104.74,-31.98,-89.61,24.41
29424,23.16,1012.4,10.04,9.98,0.85,0.64,-0.44,22.18,-62.56,-9.53,106.5,-30.48,-89.9,24.9
29458,23.16,1012.4,10.04,9.99,0.63,0.68,-0.43,53.36,-30.22,-17.05,109.17,-29.7,-90.48,24.41
29490,23.16,1012.39,10.13,10.02,0.74,0.85,-0.41,21.57,-40.21,-20.91,110.62,-28.69,-91.15,24.41
29521,23.16,1012.39,10.13,10.04,0.76,0.66,-0.46,-47.94,15.49,-29.75,110.08,-29.53,-92.08,23.93
29552,23.16,1012.39,10.13,10.06,0.6,0.71,-0.42,-17.22,10.92,-15.89,110.33,-30.08,-92.57,24.41
29584,23.17,1012.41,9.91,10.03,0.67,0.89,-0.4,-41.32,26.36,-19.26,109.71,-31.07,-93.18,24.9
29618,23.17,1012.41,9.91,10.01,0.73,0.81,-0.55,-157.09,53.62,-36.1,105.31,-33.05,-94.41,24.9
29649,23.17,1012.41,9.91,9.99,0.59,0.94,-0.31,-264.84,91.55,-78.74,97.92,-35.87,-96.85,24.9
29680,23.16,1012.39,10.12,10.01,0.59,0.97,-0.03,-303.99,88.36,-81.47,89.41,-38.55,-99.38,24.41
29712,23.16,1012.39,10.12,10.03,0.66,0.89,-0.13,-290.58,69.82,-65.29,81.32,-40.78,-101.47,24.41
29744,23.16,1012.39,10.12,10.05,0.69,0.85,0.11,-352.57,115.01,-125.37,69.91,-37.21,-105.48,24.41
29777,23.17,1012.42,9.9,10.02,0.53,0.65,0.33,-272.77,187.15,-118.76,60.87,-31.22,-109.4,24.9
29811,23.17,1012.42,9.9,10,0.28,0.75,0.65,-189.85,171.2,-72.42,54.51,-25.28,-111.86,24.9
29844,23.17,1012.42,9.9,9.98,0.43,0.77,0.54,-246.22,148.16,-72.33,46.68,-20.56,-114.25,24.41
29877,23.17,1012.39,10.09,10,0.15,0.5,0.69,-265.3,146.08,-76.83,38.14,-15.72,-116.78,23.93
29909,23.17,1012.39,10.09,10.02,0.15,0.42,0.66,-246.32,165.07,-95.46,30.55,-10.52,-119.84,24.41
29941,23.17,1012.39,10.09,10.03,-0.13,0.41,0.89,-208.02,147.73,-81.82,24.16,-5.61,-122.46,23.93
29976,23.18,1012.42,9.89,10.01,-0.26,0.35,0.95,-167.04,3.58,-27.7,18.6,-5.18,-123.43,23.93
30008,23.18,1012.42,9.89,9.98,-0.01,0.29,0.89,-138.52,30.08,-39.57,14.5,-4.21,-124.69,24.9
30039,23.18,1012.42,9.89,9.97,-0.06,0.1,0.99,-134.25,7.73,-36.54,10.51,-3.9,-125.82,24.41
30070,23.18,1012.4,10.03,9.98,-0.1,0.1,0.88,-113.41,4.29,-67.89,7.24,-3.64,-127.93,24.41
30102,23.18,1012.4,10.03,9.99,-0.15,0.15,0.94,-50.63,31.96,-31.82,5.95,-2.47,-128.95,23.93
30134,23.18,1012.4,10.03,10,-0.15,0.04,1.02,-40.41,-27.9,1.02,4.87,-3.21,-128.91,24.41
30167,23.17,1012.4,10.05,10.01,-0.11,0.03,0.95,-36.11,-28.96,-33.37,3.9,-4.04,-130.02,24.41
30198,23.17,1012.4,10.05,10.02,-0.09,0.02,1,-15.86,-20.19,-13.92,3.62,-4.55,-130.45,23.93
30230,23.17,1012.4,10.05,10.03,-0.04,-0.03,0.97,-33.62,-24.38,-27.7,2.72,-5.26,-131.33,24.9
30262,23.17,1012.39,10.11,10.04,-0.09,-0.02,1,-11.97,-10.7,-19.92,2.53,-5.47,-131.97,24.41
30293,23.17,1012.39,10.11,10.06,-0.04,-0.15,1.12,20.14,11.07,27.53,3.19,-5.06,-131.12,24.9
30326,23.17,1012.39,10.11,10.07,-0.06,0,0.96,9.48,-0.15,12.22,3.69,-4.98,-130.71,23.93
30358,23.17,1012.39,10.13,10.08,-0.07,0.03,0.94,14.52,4.34,6.3,4.37,-4.75,-130.51,24.41
30390,23.17,1012.39,10.13,10.09,-0.03,0.05,0.95,37.8,5.64,24.74,5.78,-4.52,-129.72,24.41
30421,23.17,1012.39,10.13,10.1,-0.14,0.12,1.08,-5.32,9.41,-8.65,5.89,-4.09,-129.99,24.9
30452,23.18,1012.39,10.08,10.09,-0.08,0.05,0.97,-5.04,0.42,-8.5,5.94,-3.98,-130.25,24.41
30484,23.18,1012.39,10.08,10.09,-0.05,0.04,0.98,-5.18,-3.26,-5.08,5.96,-4.03,-130.41,23.93
30518,23.18,1012.39,10.08,10.09,-0.07,0.08,0.94,-5.25,-2.07,-3.86,6.03,-4.01,-130.55,24.41
30549,23.18,1012.43,9.77,10.03,-0.06,0.06,0.97,-6.15,1.35,2.73,6.04,-3.91,-130.46,23.93
30580,23.18,1012.43,9.77,9.97,-0.06,0.05,0.96,-6.08,1.84,4.39,6.06,-3.78,-130.33,24.41
30612,23.18,1012.43,9.77,9.93,-0.06,0.04,0.98,-5.9,0.95,1.64,6.06,-3.69,-130.27,24.9
30644,23.18,1012.41,9.98,9.94,-0.06,0.05,0.98,-5.28,-1.98,-4.88,6.09,-3.69,-130.43,24.41
30677,23.18,1012.41,9.98,9.95,-0.06,0.03,0.98,-5.27,-1.48,-5,6.09,-3.68,-130.59,24.9
30708,23.18,1012.41,9.98,9.96,-0.07,0.05,0.97,-5.09,-3,-4.89,6.14,-3.7,-130.75,23.93
30740,23.18,1012.39,10.11,9.99,-0.1,0.05,0.99,-4.92,-10.68,-5.24,6.18,-3.93,-130.91,24.41
30772,23.18,1012.39,10.11,10.01,-0.07,0.06,0.98,-4.8,-17.29,-5.06,6.23,-4.39,-131.08,23.93
30803,23.18,1012.39,10.11,10.03,-0.09,0.05,0.98,-4.7,-25.42,-5.31,6.29,-5.06,-131.24,24.9
30834,23.18,1012.38,10.17,10.06,-0.05,0.05,0.98,-4.6,-36.77,-5.53,6.33,-6.1,-131.41,24.41
30868,23.18,1012.38,10.17,10.08,0.07,0.08,0.96,-5.73,-33.98,-5.08,6.38,-7.28,-131.58,24.41
30900,23.18,1012.38,10.17,10.1,0.17,0.02,0.94,-6.52,-2.65,-5.58,6.32,-7.5,-131.76,23.93
30931,23.18,1012.39,10.12,10.1,0,0.05,0.99,-3.7,13.41,-4.48,6.4,-7.03,-131.9,24.41
30962,23.18,1012.39,10.12,10.1,-0.03,0.06,0.99,-4.99,7.99,-4.63,6.45,-6.69,-132.04,23.93
30994,23.18,1012.39,10.12,10.11,0,0.05,0.99,-5.71,-2.85,-4.92,6.46,-6.73,-132.2,24.41
31028,23.18,1012.43,9.78,10.04,-0.01,0.05,0.99,-5.88,-3.75,-4.74,6.45,-6.79,-132.36,24.41
31059,23.18,1012.43,9.78,9.99,0.07,0.04,0.97,-5.32,3.55,-4.56,6.47,-6.71,-132.5,24.41
31090,23.18,1012.43,9.78,9.95,0.04,0.06,0.98,-3.99,14.51,-4.69,6.55,-6.26,-132.65,23.44
31122,23.18,1012.39,10.11,9.98,-0.05,0.06,0.99,-5.21,-1.19,-4.68,6.59,-6.2,-132.8,24.41
31154,23.18,1012.39,10.11,10,0.01,0.06,0.98,-6.69,-10.41,-4.83,6.57,-6.49,-132.95,24.9
31185,23.18,1012.39,10.11,10.02,0.05,0.09,0.97,-7.33,-10.64,-4.74,6.58,-6.83,-133.1,24.41
31218,23.18,1012.38,10.17,10.05,0.08,0.03,0.95,-4.4,4.8,-4.88,6.6,-6.71,-133.26,24.9
31250,23.18,1012.38,10.17,10.07,-0.02,0.06,1,-4.75,8.31,-4.48,6.64,-6.38,-133.41,24.9
31282,23.18,1012.38,10.17,10.09,0,0.05,0.99,-5.18,1.5,-4.73,6.67,-6.28,-133.56,25.39
31313,23.18,1012.39,10.12,10.1,0,0.06,1,-5.8,-2.62,-4.94,6.68,-6.32,-133.71,24.9
31344,23.18,1012.39,10.12,10.1,0.07,0.04,0.95,-5.42,1.36,-4.85,6.68,-6.31,-133.86,23.93
31376,23.18,1012.39,10.12,10.1,-0.01,0.06,0.98,-5.27,4.4,-4.73,6.71,-6.12,-134.01,23.93
31410,23.18,1012.41,9.9,10.06,0.03,0.05,0.97,-5.83,-0.19,-5.05,6.71,-6.11,-134.18,23.44
31441,23.18,1012.41,9.9,10.03,0.02,0.05,0.99,-5.07,2.65,-4.83,6.74,-6.01,-134.33,24.41
31472,23.18,1012.41,9.9,10.01,0.01,0.05,0.97,-5.19,1.01,-4.6,6.77,-5.96,-134.48,24.9
31504,23.18,1012.4,9.99,10,0.02,0.05,0.98,-5.38,0.98,-4.88,6.79,-5.91,-134.63,24.9
31536,23.18,1012.4,9.99,10,0.01,0.04,0.98,-5.32,2.31,-4.68,6.8,-5.81,-134.78,24.9
31567,23.18,1012.4,9.99,10,0.01,0.05,0.97,-5.28,1.56,-4.88,6.81,-5.74,-134.94,23.44
31601,23.18,1012.42,9.9,9.98,0.02,0.05,0.98,-5.41,2.22,-4.83,6.82,-5.66,-135.1,24.9
31633,23.18,1012.42,9.9,9.96,0.02,0.05,0.98,-5.22,1.81,-4.91,6.84,-5.59,-135.25,24.41
31665,23.18,1012.42,9.9,9.95,0.02,0.05,0.97,-5.07,1.41,-4.63,6.86,-5.54,-135.4,23.44
31697,23.18,1012.41,9.93,9.95,0.02,0.05,0.98,-5.33,1.06,-4.88,6.87,-5.5,-135.56,24.9
31728,23.18,1012.41,9.93,9.94,0.02,0.05,0.98,-5.28,1.55,-4.71,6.9,-5.44,-135.7,23.44
31762,23.18,1012.41,9.93,9.94,0.01,0.05,0.98,-5.38,1.35,-4.74,6.9,-5.39,-135.87,24.41
31794,23.18,1012.43,9.81,9.91,0.02,0.05,0.98,-5.22,1.62,-4.79,6.91,-5.34,-136.02,24.41
31825,23.18,1012.43,9.81,9.89,0.02,0.05,0.97,-5.27,1.68,-4.73,6.94,-5.28,-136.17,24.41
31856,23.18,1012.43,9.81,9.88,0.02,0.05,0.98,-5.13,1.3,-4.53,6.96,-5.24,-136.31,24.41
31888,23.18,1012.43,9.81,9.86,0.02,0.05,0.99,-5.18,1.24,-4.71,6.98,-5.2,-136.46,24.41
31920,23.18,1012.43,9.81,9.85,0.01,0.05,0.98,-5.57,1.36,-4.86,6.99,-5.15,-136.61,23.44
31953,23.18,1012.43,9.81,9.85,0.02,0.05,0.99,-5.35,1.41,-4.76,6.99,-5.11,-136.77,24.41
31984,23.18,1012.43,9.81,9.84,0.02,0.05,0.99,-5.41,1.39,-4.88,7.01,-5.07,-136.92,24.41
32016,23.18,1012.41,9.96,9.86,0.02,0.05,0.98,-5.36,2.07,-4.77,7.02,-5.02,-137.07,24.41
32048,23.18,1012.41,9.96,9.88,0.02,0.05,0.98,-5.44,1.7,-4.71,7.03,-4.96,-137.22,24.9
32079,23.18,1012.41,9.96,9.9,0.02,0.06,0.98,-5.15,1.03,-4.71,7.05,-4.94,-137.37,23.93
32111,23.18,1012.41,9.93,9.9,0.01,0.05,0.98,-5.27,1.35,-4.79,7.07,-4.9,-137.52,24.41
32145,23.18,1012.41,9.93,9.91,0.02,0.06,0.98,-5.13,1.06,-4.88,7.08,-4.87,-137.69,23.93
32177,23.18,1012.41,9.93,9.92,0.01,0.05,0.97,-5.39,1.55,-4.76,7.09,-4.82,-137.84,24.41
32209,23.17,1012.4,10.04,9.94,0.02,0.05,0.97,-5.47,1.65,-4.83,7.09,-4.78,-138,23.93
32240,23.17,1012.4,10.04,9.96,0.02,0.05,0.96,-5.18,2.02,-4.85,7.12,-4.73,-138.15,24.41
32272,23.17,1012.4,10.04,9.98,0.02,0.05,0.97,-5.28,1.27,-4.68,7.13,-4.7,-138.3,24.41
32304,23.18,1012.42,9.88,9.96,0.02,0.05,0.98,-5.16,1.1,-4.83,7.14,-4.68,-138.45,24.9
32337,23.18,1012.42,9.88,9.94,0.02,0.06,0.98,-5.15,1.16,-4.57,7.16,-4.65,-138.6,23.93
32368,23.18,1012.42,9.88,9.93,0.02,0.05,0.98,-5.41,1.41,-4.77,7.17,-4.61,-138.75,24.41
32400,23.18,1012.41,9.97,9.94,0.02,0.05,0.98,-5.28,1.58,-4.56,7.17,-4.58,-138.9,24.41
32432,23.18,1012.41,9.97,9.94,0.03,0.05,0.98,-5.19,1.81,-4.71,7.19,-4.55,-139.05,24.9
32463,23.18,1012.41,9.97,9.95,0.02,0.05,0.98,-5.28,1.44,-4.59,7.19,-4.52,-139.19,23.93
32495,23.18,1012.4,9.99,9.96,0.02,0.05,0.98,-5.04,1.36,-4.68,7.21,-4.49,-139.34,23.93
32529,23.18,1012.4,9.99,9.96,0.02,0.06,0.98,-5.24,1.56,-4.88,7.22,-4.45,-139.5,24.9
32561,23.18,1012.4,9.99,9.97,0.01,0.05,0.99,-5.33,1.3,-4.45,7.22,-4.42,-139.65,23.93
32593,23.18,1012.4,10.04,9.98,0.02,0.05,0.98,-5.48,1.39,-4.6,7.23,-4.39,-139.79,24.9
32624,23.18,1012.4,10.04,9.99,0.02,0.05,0.98,-5.3,2.2,-4.89,7.24,-4.34,-139.94,24.9
32656,23.18,1012.4,10.04,10,0.01,0.05,0.98,-5.15,1.87,-5,7.25,-4.3,-140.1,24.9
32690,23.18,1012.42,9.83,9.97,0.02,0.05,0.96,-5.33,2.1,-4.94,7.25,-4.25,-140.27,24.41
32721,23.18,1012.42,9.83,9.94,0.02,0.05,0.95,-5.56,1.64,-4.68,7.25,-4.22,-140.42,23.44
32752,23.18,1012.42,9.83,9.92,0.01,0.05,0.98,-5.36,1.04,-4.62,7.26,-4.2,-140.56,24.9
32784,23.18,1012.41,9.97,9.93,0.02,0.05,0.97,-5.28,1.45,-4.77,7.26,-4.19,-140.71,24.41
32816,23.18,1012.41,9.97,9.93,0.02,0.05,0.98,-5.57,1.38,-4.89,7.25,-4.16,-140.87,24.9
32847,23.18,1012.41,9.97,9.94,0.02,0.05,0.98,-5.13,2.31,-4.69,7.26,-4.11,-141.02,24.9
32881,23.18,1012.4,10.01,9.95,0.01,0.05,0.98,-5.21,1.93,-4.86,7.27,-4.07,-141.18,24.41
32913,23.18,1012.4,10.01,9.96,0.01,0.05,0.98,-5.35,1.74,-4.89,7.28,-4.03,-141.34,24.9
32945,23.18,1012.4,10.01,9.97,0.02,0.05,0.98,-5.12,1.44,-4.65,7.29,-4.01,-141.49,24.41
32977,23.18,1012.45,9.62,9.9,0.02,0.05,0.99,-5.13,1.01,-4.5,7.3,-4.01,-141.63,24.9
33008,23.18,1012.45,9.62,9.85,0.02,0.05,0.99,-5.42,1.55,-4.82,7.3,-3.99,-141.78,23.44
33040,23.18,1012.45,9.62,9.8,0.01,0.05,0.98,-5.48,1.78,-4.86,7.31,-3.95,-141.94,24.41
33074,23.18,1012.41,9.9,9.82,0.01,0.05,0.98,-5.39,1.35,-4.82,7.3,-3.92,-142.1,23.93
33105,23.18,1012.41,9.9,9.84,0.02,0.06,0.98,-5.39,1.58,-4.88,7.32,-3.9,-142.25,22.95
33136,23.18,1012.41,9.9,9.85,0.02,0.05,0.97,-5.25,1.71,-4.79,7.33,-3.88,-142.4,23.93
33168,23.18,1012.39,10.12,9.91,0.01,0.05,0.97,-5.13,1.32,-4.71,7.35,-3.86,-142.55,24.9
33200,23.18,1012.39,10.12,9.95,0.01,0.05,0.98,-5.19,1.64,-4.77,7.36,-3.83,-142.7,24.9
33231,23.18,1012.39,10.12,9.98,0.02,0.06,0.98,-5.41,1.64,-4.8,7.37,-3.8,-142.86,24.41
33265,23.18,1012.41,9.9,9.97,0.01,0.05,0.98,-5.32,1.33,-4.74,7.37,-3.78,-143.01,24.41
33297,23.18,1012.41,9.9,9.95,0.02,0.06,0.97,-5.36,1.47,-4.71,7.38,-3.77,-143.16,23.44
33329,23.18,1012.41,9.9,9.94,0.02,0.06,0.97,-5.24,2,-4.59,7.39,-3.74,-143.31,24.41
33361,23.18,1012.41,9.93,9.94,0.01,0.05,0.98,-5.09,1.79,-4.86,7.4,-3.71,-143.47,24.41
33392,23.18,1012.41,9.93,9.94,0.01,0.05,0.98,-5.1,1.15,-4.57,7.42,-3.69,-143.61,24.41
33424,23.18,1012.41,9.93,9.94,0.02,0.05,0.99,-5.1,0.95,-4.76,7.43,-3.69,-143.76,23.44
33458,23.18,1012.44,9.67,9.88,0.02,0.05,0.97,-5.21,1.32,-4.63,7.43,-3.68,-143.92,24.9
33489,23.18,1012.44,9.67,9.84,0.02,0.06,0.97,-5.45,1.73,-4.79,7.44,-3.65,-144.07,24.9
33520,23.18,1012.44,9.67,9.81,0.02,0.05,0.98,-5.22,2.16,-4.92,7.45,-3.62,-144.22,23.93
33552,23.18,1012.42,9.87,9.82,0.02,0.04,0.99,-5.28,1.59,-4.62,7.45,-3.6,-144.37,24.41
33584,23.18,1012.42,9.87,9.83,0.01,0.06,0.99,-5.28,1.32,-4.73,7.46,-3.58,-144.52,24.41
33617,23.18,1012.42,9.87,9.84,0.01,0.05,0.97,-5.15,0.83,-4.65,7.46,-3.58,-144.67,23.44
33648,23.18,1012.41,9.97,9.86,0.03,0.05,0.98,-5.24,1.55,-4.68,7.48,-3.58,-144.82,23.44
33680,23.18,1012.41,9.97,9.88,0.02,0.04,0.98,-5.39,1.85,-4.94,7.47,-3.56,-144.97,24.9
33712,23.18,1012.41,9.97,9.9,0.01,0.05,0.98,-5.42,2.08,-4.8,7.46,-3.51,-145.13,24.9
33743,23.18,1012.43,9.82,9.88,0.01,0.06,0.98,-5.19,1.21,-4.66,7.47,-3.5,-145.28,24.41
33775,23.18,1012.43,9.82,9.87,0.01,0.05,0.97,-5.15,1.09,-4.62,7.48,-3.5,-145.42,23.44
33809,23.18,1012.43,9.82,9.86,0.02,0.05,0.98,-5.33,1.26,-4.6,7.47,-3.49,-145.58,24.41
33841,23.18,1012.42,9.83,9.85,0.02,0.05,0.97,-5.27,1.35,-4.89,7.47,-3.49,-145.73,24.41
33873,23.18,1012.42,9.83,9.85,0.02,0.06,0.98,-5.25,1.2,-4.65,7.48,-3.48,-145.88,24.9
33904,23.18,1012.42,9.83,9.85,0.01,0.05,0.97,-5.22,1.62,-4.77,7.49,-3.46,-146.03,24.9
33936,23.18,1012.44,9.68,9.81,0.02,0.05,0.97,-5.28,1.96,-4.85,7.49,-3.44,-146.18,24.41
33968,23.18,1012.44,9.68,9.78,0.02,0.05,0.98,-5.32,1.94,-4.69,7.49,-3.42,-146.33,24.41
34001,23.18,1012.44,9.68,9.76,0.01,0.05,0.98,-5.12,1.88,-4.91,7.5,-3.38,-146.5,24.41
34032,23.18,1012.4,10.04,9.82,0.02,0.05,0.98,-5.18,0.98,-4.74,7.5,-3.38,-146.64,24.41
34064,23.18,1012.4,10.04,9.86,0.01,0.05,0.97,-5.18,1.38,-4.51,7.51,-3.37,-146.79,23.93
34096,23.18,1012.4,10.04,9.9,0.02,0.05,0.97,-5.64,1.47,-4.82,7.51,-3.36,-146.94,24.41
34127,23.18,1012.4,10,9.92,0.02,0.06,0.98,-5.41,1.97,-4.92,7.52,-3.33,-147.1,24.9
34159,23.18,1012.4,10,9.94,0.02,0.05,0.98,-5.16,1.71,-4.8,7.53,-3.32,-147.25,23.44
34193,23.18,1012.4,10,9.95,0.01,0.05,0.98,-5.53,1.99,-4.91,7.52,-3.28,-147.42,23.44
34225,23.18,1012.42,9.87,9.93,0.02,0.05,0.97,-5.13,1.85,-4.82,7.52,-3.26,-147.57,24.9
34257,23.18,1012.42,9.87,9.92,0.02,0.06,0.97,-5.1,1.24,-4.66,7.54,-3.26,-147.72,24.9
34288,23.18,1012.42,9.87,9.91,0.02,0.05,0.97,-5.19,1.38,-4.68,7.54,-3.26,-147.86,24.41
34320,23.18,1012.4,10,9.93,0.01,0.05,0.99,-5.28,1.41,-4.89,7.54,-3.25,-148.02,24.9
34352,23.18,1012.4,10,9.94,0.01,0.05,0.98,-5.32,1.99,-4.85,7.54,-3.22,-148.18,24.41
34385,23.18,1012.4,10,9.95,0.02,0.05,0.98,-5.39,1.82,-4.71,7.53,-3.2,-148.33,24.41
34416,23.19,1012.43,9.74,9.91,0.02,0.06,0.98,-5.16,1.62,-4.77,7.55,-3.19,-148.48,24.41
34448,23.19,1012.43,9.74,9.88,0.03,0.05,0.98,-5.18,1.03,-4.82,7.56,-3.21,-148.63,24.9
34480,23.19,1012.43,9.74,9.85,0.02,0.05,0.98,-5.01,1.45,-4.91,7.57,-3.2,-148.79,24.41
34511,23.19,1012.45,9.6,9.8,0.02,0.05,0.98,-5.3,1.42,-4.77,7.58,-3.2,-148.94,24.41
34545,23.19,1012.45,9.6,9.76,0.02,0.05,0.97,-5.47,1.52,-4.54,7.57,-3.2,-149.09,23.93
34577,23.19,1012.45,9.6,9.73,0.01,0.06,0.98,-5.27,1.64,-4.65,7.58,-3.18,-149.24,24.9
34609,23.18,1012.44,9.72,9.73,0.02,0.06,0.98,-5.32,2.19,-4.79,7.59,-3.15,-149.39,24.9
34641,23.18,1012.44,9.72,9.73,0.02,0.06,0.98,-5.39,1.36,-4.69,7.59,-3.15,-149.54,24.41
34672,23.18,1012.44,9.72,9.72,0.02,0.05,0.99,-5.18,1.5,-4.63,7.6,-3.15,-149.69,24.9
34704,23.18,1012.41,9.94,9.77,0.02,0.05,0.99,-5.21,1.36,-4.62,7.6,-3.15,-149.84,24.41
34738,23.18,1012.41,9.94,9.8,0.02,0.06,0.98,-5.21,1.42,-4.71,7.6,-3.14,-150,24.41
34769,23.18,1012.41,9.94,9.83,0.02,0.05,0.98,-5.25,1.44,-4.71,7.61,-3.14,-150.14,24.9
34800,23.18,1012.42,9.86,9.84,0.02,0.05,0.99,-5.45,1.79,-4.92,7.61,-3.13,-150.29,24.41
34832,23.18,1012.42,9.86,9.84,0.02,0.04,0.99,-5.35,2.1,-4.73,7.6,-3.1,-150.45,24.41
34864,23.18,1012.42,9.86,9.85,0.02,0.05,0.97,-5.1,1.53,-4.79,7.6,-3.1,-150.6,24.41
34895,23.18,1012.4,9.99,9.87,0.01,0.05,0.98,-5.33,1.09,-4.68,7.6,-3.1,-150.75,24.41
34929,23.18,1012.4,9.99,9.9,0.02,0.05,0.99,-5.18,1.24,-4.79,7.6,-3.1,-150.91,22.95
34961,23.18,1012.4,9.99,9.92,0.02,0.04,0.98,-5.09,1.42,-4.74,7.6,-3.09,-151.06,24.41
34993,23.18,1012.43,9.77,9.89,0.02,0.04,0.98,-5.48,1.59,-4.89,7.59,-3.09,-151.22,23.93
35025,23.18,1012.43,9.77,9.86,0.02,0.05,0.99,-5.44,1.84,-4.8,7.58,-3.07,-151.37,24.9
35056,23.18,1012.43,9.77,9.85,0.01,0.05,0.99,-5.47,1.91,-4.59,7.59,-3.05,-151.51,23.93
35088,23.19,1012.43,9.82,9.84,0.02,0.06,0.98,-5.12,1.49,-4.66,7.6,-3.05,-151.66,23.44
35122,23.19,1012.43,9.82,9.84,0.02,0.06,0.97,-5.38,1.68,-4.92,7.6,-3.03,-151.83,23.93
35153,23.19,1012.43,9.82,9.83,0.02,0.06,1,-5.27,1.45,-4.68,7.61,-3.03,-151.97,24.41
35184,23.19,1012.42,9.85,9.84,0.01,0.05,0.99,-5.35,1.58,-4.82,7.61,-3.03,-152.12,24.41
35216,23.19,1012.42,9.85,9.84,0.02,0.05,0.97,-5.33,1.87,-4.83,7.61,-3.01,-152.28,23.93
35248,23.19,1012.42,9.85,9.84,0.01,0.05,0.98,-5.36,1.88,-4.82,7.61,-2.99,-152.43,24.41
35279,23.19,1012.43,9.77,9.83,0.02,0.05,0.98,-5.41,1.68,-4.71,7.61,-2.99,-152.58,23.44
35313,23.19,1012.43,9.77,9.82,0.02,0.05,0.97,-5.41,2.16,-4.8,7.6,-2.96,-152.74,24.41
35345,23.19,1012.43,9.77,9.81,0.02,0.05,0.98,-5.39,1.74,-4.74,7.6,-2.95,-152.89,23.93
35377,23.18,1012.42,9.86,9.82,0.02,0.05,0.98,-5.09,1.38,-4.86,7.6,-2.95,-153.05,23.93
35409,23.18,1012.42,9.86,9.83,0.02,0.05,0.99,-5.27,1.07,-4.63,7.6,-2.96,-153.2,24.9
35440,23.18,1012.42,9.86,9.83,0.02,0.05,0.99,-5.53,1.61,-4.8,7.6,-2.96,-153.34,23.93
35474,23.19,1012.43,9.8,9.83,0.01,0.06,0.98,-5.41,1.01,-4.89,7.59,-2.96,-153.51,24.9
35506,23.19,1012.43,9.8,9.82,0.02,0.05,0.97,-5.25,1.58,-4.95,7.6,-2.96,-153.67,23.93
35537,23.19,1012.43,9.8,9.82,0.01,0.05,0.96,-5.22,1.71,-4.89,7.6,-2.95,-153.82,23.44
35568,23.19,1012.44,9.67,9.79,0.02,0.05,0.99,-5.36,1.16,-4.77,7.6,-2.96,-153.97,23.44
35600,23.19,1012.44,9.67,9.76,0.02,0.05,0.98,-5.18,1.74,-4.71,7.6,-2.95,-154.12,24.41
35632,23.19,1012.44,9.67,9.74,0.02,0.05,0.96,-5.35,1.53,-4.94,7.61,-2.95,-154.28,23.93
35671,23.19,1012.44,9.72,9.74,0.01,0.05,0.98,-5.41,1.58,-4.66,7.57,-2.94,-154.46,23.44
35702,23.19,1012.44,9.72,9.74,0.02,0.05,0.98,-5.3,1.78,-4.83,7.57,-2.93,-154.61,24.9
35734,23.19,1012.44,9.72,9.73,0.02,0.05,0.98,-5.33,2.1,-4.91,7.57,-2.91,-154.77,24.9
35766,23.2,1012.42,9.89,9.76,0.02,0.05,0.97,-5.25,1.38,-4.77,7.58,-2.91,-154.92,23.93
35797,23.2,1012.42,9.89,9.79,0.02,0.05,0.98,-5.27,1.68,-4.88,7.59,-2.91,-155.07,24.41
35828,23.2,1012.42,9.89,9.81,0.02,0.05,0.97,-5.48,1.94,-4.74,7.59,-2.9,-155.22,23.93
35862,23.19,1012.43,9.76,9.8,0.01,0.05,0.98,-5.38,1.38,-4.76,7.57,-2.89,-155.38,24.9
35894,23.19,1012.43,9.76,9.79,0.02,0.05,0.98,-5.67,1.65,-4.73,7.55,-2.88,-155.53,24.41
35925,23.19,1012.43,9.76,9.78,0.02,0.06,1,-5.36,1.87,-4.86,7.57,-2.87,-155.68,24.41
35956,23.19,1012.43,9.82,9.79,0.02,0.05,0.97,-5.19,1.87,-4.69,7.58,-2.86,-155.83,23.93
35988,23.19,1012.43,9.82,9.8,0.02,0.06,0.98,-5.06,1.27,-4.62,7.6,-2.87,-155.97,24.41
36020,23.19,1012.43,9.82,9.8,0.02,0.06,0.98,-5.32,1.41,-4.6,7.6,-2.87,-156.12,23.93
36053,23.19,1012.43,9.79,9.8,0.02,0.06,0.97,-5.42,1.04,-4.68,7.6,-2.89,-156.28,23.93
36084,23.19,1012.43,9.79,9.79,0.01,0.05,0.98,-5.28,2.03,-4.94,7.61,-2.87,-156.43,24.9
36116,23.19,1012.43,9.79,9.79,0.01,0.06,0.97,-5.48,1.91,-4.95,7.61,-2.85,-156.59,23.93
36148,23.19,1012.43,9.78,9.79,0.02,0.05,0.98,-5.15,1.55,-4.76,7.62,-2.86,-156.74,24.41
36179,23.2,1012.43,9.78,9.79,0.01,0.05,0.98,-5.53,1.32,-4.71,7.62,-2.86,-156.89,24.9
36210,23.2,1012.43,9.78,9.79,0.02,0.05,0.98,-5.32,1.71,-4.69,7.62,-2.85,-157.03,23.44
36244,23.2,1012.43,9.94,9.82,0.02,0.05,0.98,-5.42,1.12,-4.54,7.61,-2.87,-157.19,24.9
36276,23.19,1012.41,9.94,9.84,0.02,0.05,0.99,-5.38,1.49,-4.79,7.6,-2.87,-157.34,24.41
36307,23.19,1012.41,9.94,9.86,0.01,0.05,0.98,-5.35,2.36,-4.82,7.6,-2.84,-157.49,23.93
36338,23.19,1012.41,9.94,9.88,0.02,0.05,0.98,-5.16,1.56,-4.82,7.61,-2.83,-157.64,24.9
36370,23.19,1012.44,9.69,9.84,0.02,0.05,0.98,-5.51,1.13,-4.77,7.6,-2.84,-157.79,24.41
36402,23.19,1012.44,9.69,9.81,0.02,0.05,0.97,-5.44,1.65,-4.71,7.6,-2.85,-157.94,24.9
36435,23.19,1012.44,9.69,9.78,0.02,0.05,0.99,-5.51,1.26,-4.77,7.58,-2.86,-158.1,24.41
36466,23.19,1012.43,9.77,9.78,0.02,0.06,0.98,-5.48,1.78,-4.82,7.59,-2.85,-158.25,24.9
36498,23.19,1012.43,9.77,9.78,0.02,0.05,0.98,-5.15,1.67,-4.76,7.59,-2.84,-158.4,23.44
36530,23.19,1012.43,9.77,9.78,0.02,0.06,0.98,-5.24,1.26,-4.57,7.6,-2.85,-158.55,24.41
36561,23.19,1012.45,9.57,9.74,0.02,0.05,0.98,-5.5,1.87,-4.71,7.6,-2.85,-158.69,24.41
36594,23.19,1012.45,9.57,9.7,0.02,0.06,0.98,-5.32,1.49,-4.85,7.6,-2.84,-158.85,23.93
36626,23.19,1012.45,9.57,9.68,0.02,0.05,0.98,-5.54,1.61,-4.79,7.59,-2.85,-159.01,24.41
36658,23.19,1012.43,9.79,9.7,0.02,0.05,0.97,-5.35,2.1,-4.88,7.59,-2.83,-159.16,23.44
36689,23.19,1012.43,9.79,9.72,0.02,0.05,0.98,-5.15,1.13,-4.69,7.61,-2.84,-159.31,23.44
36720,23.19,1012.43,9.79,9.73,0.02,0.05,0.98,-5.51,1.38,-4.54,7.61,-2.85,-159.45,24.41
36752,23.19,1012.41,9.94,9.77,0.02,0.05,0.98,-5.5,1.71,-4.77,7.6,-2.84,-159.6,24.41
36786,23.19,1012.41,9.94,9.81,0.02,0.06,0.98,-5.22,1.18,-4.76,7.6,-2.84,-159.76,24.41
36817,23.19,1012.41,9.94,9.83,0.02,0.05,0.96,-5.44,2,-4.85,7.61,-2.83,-159.91,24.9
36848,23.19,1012.4,10.03,9.87,0.02,0.05,0.98,-5.36,1.85,-4.51,7.61,-2.82,-160.05,24.9
36880,23.19,1012.4,10.03,9.9,0.01,0.05,0.98,-5.24,1.39,-4.53,7.61,-2.82,-160.2,24.41
36912,23.19,1012.4,10.03,9.93,0.02,0.05,0.98,-5.3,0.98,-4.62,7.61,-2.84,-160.35,24.9
36943,23.2,1012.43,9.81,9.91,0.02,0.05,0.98,-5.5,1.24,-4.76,7.6,-2.85,-160.5,24.41
36977,23.2,1012.43,9.81,9.89,0.02,0.06,0.99,-5.28,1.18,-4.69,7.6,-2.86,-160.65,24.41
37009,23.2,1012.43,9.81,9.87,0.02,0.05,0.98,-5.27,1.29,-4.71,7.61,-2.87,-160.8,24.41
37041,23.19,1012.43,9.79,9.85,0.02,0.05,0.98,-5.59,1.45,-5.02,7.59,-2.87,-160.96,24.41
37073,23.19,1012.43,9.79,9.84,0.02,0.05,0.99,-5.32,1.84,-4.82,7.59,-2.86,-161.12,24.41
37104,23.19,1012.43,9.79,9.83,0.02,0.05,0.98,-5.27,1.74,-4.71,7.6,-2.86,-161.26,23.44
37136,23.19,1012.43,9.74,9.81,0.02,0.06,0.98,-5.18,1.26,-4.6,7.61,-2.86,-161.41,23.44
37170,23.19,1012.43,9.74,9.8,0.02,0.05,0.98,-5.39,1.91,-4.79,7.6,-2.84,-161.57,24.9
37201,23.19,1012.43,9.74,9.79,0.02,0.05,0.99,-5.15,1.03,-4.8,7.61,-2.86,-161.72,24.41
37232,23.19,1012.42,9.83,9.8,0.02,0.05,0.98,-5.51,1.67,-4.85,7.61,-2.86,-161.87,24.41
37264,23.19,1012.42,9.83,9.8,0.02,0.05,0.99,-5.56,2.03,-4.82,7.6,-2.85,-162.03,24.41
37296,23.19,1012.42,9.83,9.81,0.02,0.05,0.98,-5.28,1.5,-4.85,7.6,-2.85,-162.18,24.9
37327,23.19,1012.41,9.96,9.84,0.02,0.05,0.98,-5.28,0.94,-4.65,7.6,-2.86,-162.33,23.44
37361,23.19,1012.41,9.96,9.86,0.01,0.05,0.98,-5.28,1.55,-4.69,7.59,-2.85,-162.49,24.41
37393,23.19,1012.41,9.96,9.88,0.02,0.05,0.97,-5.07,1.21,-4.57,7.6,-2.86,-162.63,23.44
37425,23.19,1012.43,9.79,9.86,0.02,0.06,0.98,-5.39,1.39,-4.74,7.61,-2.87,-162.78,24.41
37457,23.19,1012.43,9.79,9.85,0.02,0.05,0.98,-5.35,1.65,-4.91,7.61,-2.86,-162.94,23.93
37488,23.19,1012.43,9.79,9.84,0.02,0.05,0.98,-5.44,2.08,-4.88,7.62,-2.84,-163.09,23.44
37522,23.19,1012.43,9.79,9.83,0.01,0.05,0.98,-5.28,1.82,-4.88,7.61,-2.81,-163.26,24.41
37554,23.19,1012.43,9.79,9.82,0.02,0.05,0.98,-5.39,1.7,-4.91,7.61,-2.81,-163.42,24.41
37585,23.19,1012.43,9.79,9.81,0.02,0.04,0.98,-5.25,1.16,-4.69,7.61,-2.82,-163.56,24.41
37616,23.19,1012.43,9.76,9.8,0.02,0.05,0.98,-5.42,1.61,-4.88,7.61,-2.82,-163.71,24.9
37648,23.19,1012.43,9.76,9.79,0.02,0.05,0.99,-5.38,1.96,-4.79,7.61,-2.81,-163.87,24.41
37680,23.19,1012.43,9.76,9.78,0.02,0.05,0.98,-5.45,1.78,-5,7.61,-2.81,-164.03,24.9
37713,23.19,1012.41,9.95,9.82,0.02,0.05,0.98,-5.28,2.08,-4.83,7.6,-2.79,-164.18,24.41
37744,23.19,1012.41,9.95,9.84,0.01,0.05,0.98,-5.24,1.67,-4.69,7.61,-2.78,-164.33,24.41
37776,23.19,1012.41,9.95,9.87,0.01,0.05,0.97,-5.12,1.2,-4.57,7.62,-2.79,-164.48,23.93
37808,23.19,1012.41,9.92,9.88,0.02,0.05,0.98,-5.44,1.42,-4.83,7.61,-2.8,-164.63,24.41
37839,23.19,1012.41,9.92,9.88,0.02,0.05,0.98,-5.39,1.99,-4.86,7.61,-2.78,-164.79,23.93
37871,23.19,1012.41,9.92,9.89,0.01,0.05,0.98,-5.22,1.87,-4.85,7.62,-2.77,-164.94,23.44
37905,23.19,1012.42,9.84,9.88,0.02,0.05,0.98,-5.38,1.78,-4.88,7.6,-2.76,-165.1,24.9
37937,23.19,1012.42,9.84,9.87,0.02,0.05,0.98,-5.19,1.64,-4.89,7.6,-2.76,-165.26,24.9
37969,23.19,1012.42,9.84,9.87,0.02,0.05,0.98,-5.16,1.38,-4.66,7.61,-2.76,-165.41,24.41
38000,23.19,1012.41,9.95,9.88,0.02,0.05,0.98,-5.47,1.33,-4.71,7.61,-2.77,-165.55,24.41
38032,23.19,1012.41,9.95,9.9,0.02,0.05,0.98,-5.47,1.56,-4.83,7.61,-2.77,-165.71,24.41
38064,23.19,1012.41,9.95,9.91,0.02,0.05,0.98,-5.28,2.05,-4.73,7.61,-2.75,-165.86,24.41
38097,23.2,1012.42,9.89,9.9,0.02,0.05,0.98,-5.28,2.07,-4.94,7.61,-2.74,-166.02,24.41
38128,23.2,1012.42,9.89,9.9,0.02,0.05,0.97,-5.38,2.07,-4.77,7.61,-2.72,-166.17,23.44
38160,23.2,1012.42,9.89,9.9,0.02,0.05,0.98,-5.07,1.18,-4.73,7.62,-2.74,-166.32,24.41
38192,23.19,1012.43,9.79,9.88,0.02,0.05,0.98,-5.33,1.15,-4.54,7.62,-2.75,-166.47,24.41
38223,23.19,1012.43,9.79,9.86,0.02,0.05,1.01,-5.61,1.39,-4.73,7.61,-2.76,-166.62,24.41
38255,23.19,1012.43,9.79,9.84,0.03,0.05,0.99,-5.28,2.48,-4.85,7.61,-2.74,-166.77,24.41
38289,23.19,1012.41,9.94,9.86,0.02,0.05,0.94,-5.3,1.53,-4.69,7.6,-2.74,-166.93,23.93
38321,23.19,1012.41,9.94,9.88,0.02,0.05,0.97,-5.48,1.64,-4.79,7.59,-2.74,-167.08,24.41
38353,23.19,1012.41,9.94,9.89,0.02,0.06,0.98,-5.1,2.32,-4.71,7.61,-2.72,-167.23,23.93
38384,23.19,1012.43,9.74,9.86,0.01,0.04,0.96,-5.24,1.07,-4.73,7.61,-2.73,-167.38,24.41
38416,23.19,1012.43,9.74,9.84,0.02,0.05,0.96,-5.32,1.41,-4.66,7.61,-2.74,-167.53,24.41
38450,23.19,1012.43,9.74,9.82,0.01,0.05,0.95,-5.15,0.81,-4.56,7.61,-2.76,-167.68,23.44
38481,23.19,1012.41,9.98,9.85,0.02,0.04,0.95,-5.57,1.61,-4.8,7.6,-2.76,-167.83,24.41
38512,23.19,1012.41,9.98,9.88,0.01,0.05,0.96,-5.44,1.85,-4.89,7.6,-2.75,-167.98,23.93
38544,23.19,1012.41,9.98,9.9,0.02,0.05,0.97,-5.28,2,-4.8,7.6,-2.74,-168.14,24.9
38576,23.19,1012.43,9.82,9.88,0.01,0.05,0.97,-5.1,1.29,-4.74,7.6,-2.74,-168.29,23.44
38607,23.19,1012.43,9.82,9.87,0.02,0.05,0.97,-5.21,1.01,-4.63,7.61,-2.76,-168.44,24.41
38641,23.19,1012.43,9.82,9.86,0.01,0.05,0.95,-5.09,1.47,-4.57,7.62,-2.75,-168.59,24.9
38673,23.19,1012.42,9.83,9.85,0.02,0.05,0.95,-5.13,0.98,-4.85,7.63,-2.77,-168.74,23.93
38705,23.19,1012.42,9.83,9.85,0.02,0.05,0.96,-5.18,1.73,-4.77,7.63,-2.77,-168.9,24.41
38737,23.19,1012.42,9.83,9.85,0.02,0.05,0.97,-5.36,1.78,-4.76,7.62,-2.76,-169.05,23.93
38768,23.19,1012.43,9.76,9.83,0.02,0.04,0.97,-5.22,1.52,-4.66,7.62,-2.77,-169.19,23.44
38800,23.19,1012.43,9.76,9.82,0.01,0.05,0.95,-5.24,1.21,-4.73,7.63,-2.77,-169.34,24.9
38834,23.19,1012.43,9.76,9.8,0.03,0.05,0.96,-5.39,1.38,-4.77,7.61,-2.79,-169.51,23.93
38865,23.19,1012.4,10.01,9.85,0.02,0.05,0.95,-5.24,1.74,-4.74,7.63,-2.79,-169.65,24.41
38896,23.19,1012.4,10.01,9.88,0.02,0.06,0.96,-5.12,1.62,-5.02,7.65,-2.79,-169.81,24.41
38928,23.19,1012.4,10.01,9.9,0.01,0.06,0.96,-5.13,2.17,-4.95,7.66,-2.76,-169.97,25.39
38960,23.2,1012.42,9.83,9.89,0.02,0.06,0.96,-5.28,1.67,-4.71,7.67,-2.75,-170.12,23.93
38991,23.2,1012.42,9.83,9.88,0.02,0.05,0.95,-5.28,1.3,-4.77,7.67,-2.76,-170.27,23.44
39025,23.2,1012.42,9.83,9.87,0.02,0.05,0.95,-5.19,1.33,-4.71,7.66,-2.77,-170.43,24.41
39057,23.19,1012.39,10.15,9.92,0.02,0.05,0.93,-4.95,1.23,-4.42,7.67,-2.79,-170.57,24.41
39089,23.19,1012.39,10.15,9.97,0.02,0.05,0.94,-5.27,1.33,-4.69,7.67,-2.8,-170.72,24.41
39121,23.19,1012.39,10.15,10,0.02,0.05,0.94,-5.47,1.52,-4.69,7.67,-2.81,-170.87,24.9
39152,23.19,1012.4,10.02,10.01,0.01,0.05,0.94,-5.36,2.17,-4.91,7.67,-2.79,-171.02,23.93
39184,23.19,1012.4,10.02,10.01,0.01,0.05,0.93,-5.39,1.97,-4.98,7.68,-2.77,-171.18,23.93
39218,23.19,1012.4,10.02,10.01,0.02,0.06,0.94,-5.41,2.17,-4.82,7.67,-2.74,-171.34,24.9
39249,23.19,1012.41,9.98,10.01,0.02,0.05,0.93,-5.12,1.1,-4.63,7.68,-2.77,-171.49,24.41
39280,23.19,1012.41,9.98,10,0.02,0.05,0.94,-5.16,1.32,-4.71,7.69,-2.78,-171.63,23.93
39312,23.19,1012.41,9.98,10,0.02,0.05,0.94,-5.38,1.24,-4.65,7.69,-2.8,-171.78,24.41
39344,23.19,1012.41,9.98,9.99,0.02,0.05,0.93,-5.28,1.7,-4.88,7.69,-2.8,-171.94,24.41
39377,23.19,1012.41,9.98,9.99,0.01,0.05,0.93,-5.35,1.93,-4.94,7.68,-2.78,-172.1,23.44
39408,23.19,1012.41,9.98,9.99,0.02,0.06,0.93,-5.53,1.94,-4.8,7.7,-2.77,-172.25,24.41
39440,23.19,1012.41,9.96,9.98,0.02,0.06,0.93,-5.19,1.21,-4.68,7.71,-2.78,-172.4,25.39
39472,23.19,1012.41,9.96,9.98,0.02,0.05,0.93,-5.45,1.3,-4.73,7.71,-2.8,-172.55,24.9
39503,23.19,1012.41,9.96,9.97,0.02,0.06,0.94,-5.35,1.79,-4.86,7.71,-2.79,-172.71,24.9
39535,23.19,1012.41,9.85,9.95,0.02,0.05,0.94,-5.42,1.88,-5,7.71,-2.78,-172.86,24.41
39569,23.19,1012.42,9.85,9.93,0.02,0.05,0.93,-5.25,1.62,-4.77,7.71,-2.77,-173.02,23.44
39601,23.19,1012.42,9.85,9.92,0.02,0.05,0.93,-5.13,1.9,-4.92,7.71,-2.77,-173.18,23.93
39633,23.19,1012.43,9.81,9.9,0.03,0.05,0.93,-5.28,1.81,-4.89,7.71,-2.77,-173.34,24.9
39664,23.19,1012.43,9.81,9.88,0.02,0.04,0.93,-5.24,1.39,-4.62,7.71,-2.78,-173.48,23.44
39696,23.19,1012.43,9.81,9.87,0.01,0.05,0.94,-5.25,1.36,-4.57,7.72,-2.78,-173.63,24.41
39728,23.19,1012.43,9.81,9.85,0.02,0.05,0.93,-5.3,1.56,-4.83,7.72,-2.78,-173.78,23.93
39761,23.2,1012.44,9.69,9.82,0.02,0.05,0.93,-5.19,1.52,-4.74,7.72,-2.78,-173.94,24.41
39792,23.2,1012.44,9.69,9.8,0.02,0.06,0.93,-5.33,2.32,-4.97,7.74,-2.76,-174.09,24.41
39824,23.2,1012.44,9.69,9.78,0.02,0.05,0.93,-5.19,1.33,-4.62,7.74,-2.77,-174.24,22.95
39856,23.19,1012.43,9.79,9.78,0.02,0.05,0.94,-5.42,1.5,-4.73,7.74,-2.77,-174.39,24.41
39887,23.19,1012.43,9.79,9.78,0.02,0.05,0.93,-5.44,1.42,-4.97,7.73,-2.78,-174.55,24.41
39919,23.19,1012.43,9.79,9.78,0.03,0.05,0.93,-5.3,2.07,-4.83,7.73,-2.78,-174.7,23.93
39953,23.19,1012.44,9.67,9.76,0.02,0.05,0.93,-5.38,1.52,-4.79,7.72,-2.78,-174.86,24.41
39985,23.19,1012.44,9.67,9.74,0.02,0.06,0.93,-5.48,2.11,-4.82,7.73,-2.77,-175.02,23.44
40017,23.19,1012.44,9.67,9.73,0.02,0.05,0.93,-5.45,1.84,-4.89,7.73,-2.76,-175.17,23.93
40048,23.19,1012.43,9.78,9.74,0.01,0.06,0.94,-5.12,1.36,-4.71,7.75,-2.76,-175.32,23.93
40080,23.19,1012.43,9.78,9.75,0.01,0.05,0.93,-5.16,1.09,-4.57,7.75,-2.77,-175.47,24.9
40112,23.19,1012.43,9.78,9.76,0.02,0.05,0.94,-5.51,1.39,-4.73,7.75,-2.78,-175.62,23.93
40145,23.18,1012.42,9.89,9.78,0.02,0.05,0.93,-5.32,1.64,-4.71,7.74,-2.77,-175.77,23.93
40176,23.18,1012.42,9.89,9.8,0.02,0.05,0.93,-5.48,1.59,-4.86,7.75,-2.78,-175.92,24.9
40208,23.18,1012.42,9.89,9.82,0.02,0.05,0.93,-5.59,2.11,-4.79,7.73,-2.76,-176.08,24.41
40240,23.19,1012.44,9.71,9.8,0.02,0.05,0.93,-5.28,1.59,-4.86,7.73,-2.76,-176.23,24.9
40271,23.19,1012.44,9.71,9.78,0.02,0.05,0.95,-5.21,1.06,-4.69,7.73,-2.78,-176.38,25.39
40305,23.19,1012.44,9.71,9.77,0.02,0.06,0.96,-5.19,1.94,-4.77,7.74,-2.76,-176.54,24.9
40337,23.19,1012.46,9.54,9.72,0.02,0.05,0.96,-5.22,1.21,-4.65,7.74,-2.77,-176.69,24.9
40369,23.19,1012.46,9.54,9.68,0.02,0.06,0.96,-5.44,1.33,-4.79,7.74,-2.78,-176.84,23.93
40401,23.19,1012.46,9.54,9.66,0.03,0.05,0.95,-5.28,1.33,-4.88,7.74,-2.79,-177,24.9
40432,23.19,1012.44,9.66,9.66,0.02,0.05,0.97,-5.68,1.65,-4.83,7.74,-2.79,-177.15,24.9
40464,23.19,1012.44,9.66,9.66,0.01,0.04,0.96,-5.41,1.84,-4.85,7.73,-2.78,-177.3,24.9
40498,23.19,1012.44,9.66,9.66,0.02,0.05,0.97,-5.25,1.74,-4.66,7.71,-2.77,-177.46,24.9
40529,23.19,1012.49,9.29,9.58,0.01,0.05,0.97,-5.25,1.93,-4.86,7.71,-2.76,-177.61,24.41
40560,23.19,1012.49,9.29,9.52,0.02,0.06,0.97,-5.33,1.16,-4.59,7.72,-2.77,-177.75,23.93
40592,23.19,1012.49,9.29,9.48,0.02,0.06,0.98,-5.28,1.32,-4.69,7.73,-2.79,-177.91,24.9
40624,23.19,1012.48,9.38,9.46,0.02,0.05,0.98,-5.33,1.65,-4.85,7.73,-2.78,-178.06,23.93
40655,23.19,1012.48,9.38,9.44,0.02,0.05,0.98,-5.15,1.76,-5.11,7.73,-2.78,-178.22,24.41
40689,23.19,1012.48,9.38,9.43,0.02,0.04,0.98,-5.38,1.79,-4.8,7.72,-2.77,-178.38,24.41
40721,23.19,1012.52,9.05,9.35,0.02,0.04,0.99,-5.38,1.91,-5,7.7,-2.76,-178.54,24.41
40753,23.19,1012.52,9.05,9.29,0.02,0.05,0.98,-5.3,1.47,-4.79,7.71,-2.77,-178.7,24.41
40785,23.19,1012.52,9.05,9.25,0.02,0.05,0.98,-5.27,1.07,-4.69,7.71,-2.78,-178.85,25.39
40816,23.18,1012.49,9.32,9.26,0.02,0.05,0.99,-5.27,1.62,-4.68,7.71,-2.78,-178.99,24.41
40848,23.18,1012.49,9.32,9.27,0.02,0.05,0.98,-5.35,1.9,-4.88,7.71,-2.77,-179.15,24.9
40882,23.18,1012.49,9.32,9.28,0.01,0.06,0.99,-5.38,1.73,-4.85,7.7,-2.75,-179.31,24.9
40913,23.19,1012.5,9.17,9.26,0.02,0.05,0.98,-5.16,1.71,-4.83,7.71,-2.75,-179.46,24.41
40944,23.19,1012.5,9.17,9.24,0.02,0.05,0.98,-5.15,1.06,-4.63,7.71,-2.77,-179.6,23.93
40976,23.19,1012.5,9.17,9.22,0.02,0.05,0.98,-5.39,1.44,-4.76,7.71,-2.77,-179.76,24.41
41008,23.18,1012.5,9.19,9.22,0.02,0.05,0.98,-5.36,1.49,-4.85,7.7,-2.78,-179.91,24.41
41039,23.18,1012.5,9.19,9.21,0.02,0.05,0.97,-5.45,1.87,-4.82,7.69,-2.77,-180.07,23.93
41073,23.18,1012.5,9.19,9.21,0.02,0.05,0.98,-5.53,1.47,-4.83,7.68,-2.77,-180.23,24.9
41105,23.18,1012.5,9.16,9.2,0.02,0.06,0.98,-5.41,2.05,-4.88,7.68,-2.76,-180.38,24.41
41137,23.18,1012.5,9.16,9.19,0.02,0.05,0.98,-5.32,1.87,-4.8,7.68,-2.75,-180.54,24.41
41169,23.18,1012.5,9.16,9.18,0.02,0.05,0.99,-5.15,1.12,-4.69,7.69,-2.76,-180.69,23.44
41200,23.18,1012.54,8.88,9.12,0.02,0.05,0.98,-5.36,1.21,-4.76,7.69,-2.77,-180.83,23.93
41232,23.18,1012.54,8.88,9.07,0.02,0.05,0.98,-5.36,1.73,-4.71,7.68,-2.76,-180.98,24.9
41266,23.18,1012.54,8.88,9.04,0.02,0.05,0.98,-5.28,1.7,-4.76,7.67,-2.76,-181.15,24.9
41297,23.18,1012.54,8.86,9,0.02,0.05,0.98,-5.54,1.81,-4.97,7.67,-2.75,-181.3,23.93
41328,23.18,1012.54,8.86,8.97,0.02,0.05,0.98,-5.33,1.73,-4.73,7.67,-2.75,-181.45,24.9
41360,23.18,1012.54,8.86,8.95,0.02,0.05,0.98,-5.18,1.18,-4.6,7.68,-2.76,-181.59,23.44
41392,23.18,1012.54,8.84,8.93,0.02,0.05,0.98,-5.28,1.1,-4.66,7.68,-2.78,-181.74,24.9
41425,23.18,1012.54,8.84,8.91,0.02,0.05,0.98,-5.22,1.18,-4.51,7.67,-2.79,-181.89,23.93
41456,23.18,1012.54,8.84,8.9,0.02,0.05,0.98,-5.38,1.58,-4.71,7.67,-2.79,-182.04,24.41
41488,23.18,1012.56,8.71,8.86,0.02,0.05,0.98,-5.33,2.03,-4.91,7.67,-2.77,-182.19,23.44
41520,23.18,1012.56,8.71,8.83,0.02,0.05,0.98,-5.51,1.76,-4.86,7.67,-2.77,-182.35,24.9
41551,23.18,1012.56,8.71,8.81,0.02,0.05,0.97,-5.3,1.36,-4.68,7.67,-2.77,-182.5,24.9
41583,23.19,1012.56,8.73,8.79,0.02,0.05,0.97,-5.32,0.89,-4.71,7.67,-2.8,-182.65,23.93
41617,23.19,1012.56,8.73,8.78,0.02,0.05,0.98,-5.19,1.64,-4.77,7.66,-2.8,-182.81,24.9
41649,23.19,1012.56,8.73,8.77,0.01,0.05,0.97,-5.09,1.09,-4.69,7.66,-2.81,-182.96,24.9
41681,23.18,1012.59,8.46,8.71,0.02,0.05,0.98,-5.56,1.67,-4.65,7.66,-2.8,-183.11,23.93
41712,23.18,1012.59,8.46,8.66,0.02,0.05,0.99,-5.35,1.79,-5.02,7.66,-2.79,-183.26,24.9
41744,23.18,1012.59,8.46,8.62,0.02,0.05,0.99,-5.47,1.76,-4.83,7.65,-2.79,-183.42,24.9
41776,23.18,1012.58,8.5,8.59,0.01,0.06,0.98,-5.18,1.64,-4.57,7.66,-2.78,-183.56,24.41
41809,23.18,1012.58,8.5,8.57,0.01,0.05,0.98,-5.1,1.24,-4.69,7.66,-2.78,-183.72,23.93
41840,23.18,1012.58,8.5,8.56,0.02,0.05,0.98,-5.3,1.12,-4.57,7.67,-2.8,-183.86,24.41
41872,23.19,1012.57,8.63,8.57,0.02,0.05,0.98,-5.35,1.23,-4.71,7.67,-2.81,-184.01,23.93
41904,23.19,1012.57,8.63,8.59,0.02,0.05,0.98,-5.45,1.78,-4.91,7.66,-2.8,-184.17,24.9
41935,23.19,1012.57,8.63,8.6,0.03,0.05,0.97,-5.41,1.88,-4.91,7.65,-2.8,-184.33,23.93
41967,23.19,1012.58,8.51,8.58,0.02,0.05,0.99,-5.03,1.44,-4.74,7.65,-2.81,-184.47,23.93
42001,23.19,1012.58,8.51,8.57,0.02,0.05,0.98,-5.39,1.93,-4.8,7.64,-2.79,-184.64,23.93
42033,23.19,1012.58,8.51,8.56,0.02,0.04,0.98,-5.33,1.26,-4.71,7.63,-2.8,-184.79,24.9
42065,23.19,1012.61,8.3,8.5,0.02,0.05,0.97,-5.41,1,-4.73,7.63,-2.82,-184.94,24.41
42096,23.19,1012.61,8.3,8.46,0.02,0.04,0.98,-5.54,1.38,-4.68,7.61,-2.83,-185.08,24.41
42128,23.19,1012.61,8.3,8.43,0.02,0.06,0.98,-5.36,1.84,-4.85,7.62,-2.82,-185.24,24.41
42160,23.19,1012.62,8.18,8.38,0.02,0.05,0.98,-5.42,1.84,-5.03,7.61,-2.81,-185.4,23.93
42193,23.19,1012.62,8.18,8.34,0.02,0.05,0.98,-5.44,1.91,-4.92,7.6,-2.8,-185.56,24.41
42224,23.19,1012.62,8.18,8.31,0.02,0.05,0.98,-5.25,1.68,-4.76,7.61,-2.79,-185.71,23.44
42256,23.19,1012.64,8.06,8.26,0.02,0.05,0.98,-5.27,1,-4.62,7.61,-2.81,-185.86,23.93
42288,23.19,1012.64,8.06,8.22,0.02,0.05,0.98,-5.32,1.47,-4.66,7.61,-2.81,-186.01,24.41
降落伞已打开!,,,,,,,,,,,,,,
42326,23.19,1012.64,8.06,8.19,0.02,0.05,0.99,-5.3,1.39,-4.89,7.57,-2.81,-186.19,24.41
42359,23.19,1012.66,7.82,8.11,0.02,0.04,0.97,-5.01,1.09,-4.74,7.57,-2.83,-186.35,24.41
42391,23.19,1012.66,7.82,8.05,0.02,0.05,0.99,-5.3,1.3,-4.74,7.57,-2.83,-186.5,23.93
42423,23.19,1012.66,7.82,8.01,0.02,0.05,0.98,-5.45,1.7,-4.88,7.57,-2.83,-186.66,24.41
42454,23.19,1012.64,8.04,8.01,0.02,0.05,0.99,-5.19,1.55,-4.74,7.57,-2.83,-186.8,24.9
42485,23.19,1012.64,8.04,8.02,0.03,0.05,0.98,-5.22,0.92,-4.69,7.58,-2.86,-186.95,24.41
42517,23.19,1012.64,8.04,8.02,0.02,0.05,0.99,-5.18,1.26,-4.65,7.59,-2.87,-187.1,24.41
42551,23.2,1012.63,8.08,8.03,0.02,0.05,0.98,-5.32,1.15,-4.71,7.58,-2.88,-187.26,24.9
42582,23.2,1012.63,8.08,8.04,0.02,0.05,0.99,-5.3,1.49,-4.89,7.58,-2.89,-187.41,24.41
42613,23.2,1012.63,8.08,8.05,0.02,0.05,0.98,-5.38,1.97,-4.91,7.59,-2.88,-187.56,24.41
42645,23.2,1012.66,7.86,8.01,0.01,0.06,0.98,-5.19,2,-4.77,7.6,-2.85,-187.71,23.93
42677,23.2,1012.66,7.86,7.98,0.02,0.05,0.97,-5.1,1.58,-4.65,7.61,-2.85,-187.86,24.9
42708,23.2,1012.66,7.86,7.96,0.02,0.05,0.98,-5.36,1.39,-4.65,7.61,-2.86,-188.01,24.9
42741,23.19,1012.65,7.94,7.95,0.02,0.05,0.98,-5.16,1.39,-4.73,7.6,-2.86,-188.16,23.44
42773,23.19,1012.65,7.94,7.95,0.02,0.05,0.98,-5.51,1.49,-4.82,7.59,-2.86,-188.32,24.41
42805,23.19,1012.65,7.94,7.95,0.01,0.05,0.98,-5.48,1.58,-4.89,7.59,-2.86,-188.47,23.44
42836,23.19,1012.67,7.81,7.92,0.02,0.05,0.97,-5.28,1.71,-4.77,7.6,-2.85,-188.62,23.44
检测到着�?,,,,,,,,,,,,,,
42874,23.19,1012.67,7.81,7.9,0.02,0.06,0.98,-5.48,1.9,-4.83,7.56,-2.82,-188.81,23.44
42906,23.19,1012.67,7.81,7.88,0.02,0.06,0.97,-5.15,1.58,-4.63,7.58,-2.82,-188.95,24.9
42936,23.19,1012.67,7.74,7.85,0.02,0.04,0.98,-5.42,1.68,-4.71,7.58,-2.83,-189.09,24.41
42967,23.19,1012.67,7.74,7.83,0.02,0.05,0.98,-5.15,1.59,-4.73,7.59,-2.83,-189.24,24.9
42998,23.19,1012.67,7.74,7.81,0.02,0.04,0.98,-5.3,1.23,-4.53,7.59,-2.85,-189.38,23.44
43030,23.2,1012.7,7.52,7.75,0.02,0.05,0.98,-5.38,1.27,-4.71,7.59,-2.85,-189.53,28.32
43062,23.2,1012.7,7.52,7.71,0.02,0.05,0.98,-5.56,1.71,-4.91,7.58,-2.85,-189.69,25.39
43095,23.2,1012.7,7.52,7.67,0.02,0.05,0.97,-5.41,1.5,-4.8,7.57,-2.85,-189.85,28.81
43126,23.2,1012.69,7.61,7.66,0.02,0.05,0.97,-5.45,1.78,-4.86,7.57,-2.85,-190,24.41
43158,23.2,1012.69,7.61,7.65,0.01,0.05,0.98,-5.28,1.7,-4.77,7.57,-2.83,-190.15,23.93
43190,23.2,1012.69,7.61,7.64,0.02,0.05,0.98,-5.32,1.39,-4.76,7.57,-2.84,-190.3,24.41
43221,23.2,1012.67,7.78,7.67,0.02,0.05,0.98,-5.28,1.39,-4.76,7.57,-2.85,-190.45,23.93
43252,23.2,1012.67,7.78,7.69,0.01,0.05,0.98,-5.41,1.52,-4.79,7.58,-2.85,-190.6,24.9
43286,23.2,1012.67,7.78,7.71,0.02,0.05,0.97,-5.28,1.27,-4.54,7.57,-2.86,-190.75,26.37
43318,23.2,1012.67,7.78,7.72,0.02,0.05,0.98,-5.47,1.9,-4.79,7.57,-2.85,-190.91,24.41
43349,23.2,1012.67,7.78,7.74,0.01,0.05,0.98,-5.22,1.96,-4.76,7.57,-2.83,-191.05,25.39
43380,23.2,1012.67,7.78,7.75,0.02,0.05,0.97,-5.21,1.23,-4.66,7.58,-2.84,-191.2,24.41
43412,23.2,1012.69,7.6,7.72,0.01,0.05,0.98,-5.13,1.29,-4.56,7.59,-2.84,-191.34,24.9
43444,23.2,1012.69,7.6,7.69,0.01,0.05,0.98,-5.44,1.38,-4.69,7.58,-2.84,-191.49,24.9
43477,23.2,1012.69,7.6,7.67,0.02,0.05,0.98,-5.33,1.41,-4.63,7.58,-2.84,-191.65,23.44
43508,23.2,1012.72,7.38,7.61,0.02,0.05,0.97,-5.36,1.97,-4.85,7.57,-2.83,-191.8,26.86
43540,23.2,1012.72,7.38,7.57,0.02,0.05,0.98,-5.33,2.07,-4.86,7.58,-2.81,-191.95,28.81
43572,23.2,1012.72,7.38,7.53,0.02,0.05,0.99,-5.33,1.71,-4.8,7.58,-2.81,-192.11,24.41
43603,23.2,1012.71,7.42,7.51,0.02,0.05,0.98,-5.42,1.27,-4.65,7.58,-2.81,-192.25,23.93
43634,23.2,1012.71,7.42,7.49,0.01,0.04,0.97,-5.53,1.64,-4.76,7.57,-2.81,-192.4,23.93
43668,23.2,1012.71,7.42,7.47,0.02,0.04,0.98,-5.38,1.27,-4.71,7.55,-2.81,-192.56,23.44
43700,23.2,1012.74,7.23,7.43,0.02,0.06,0.99,-5.22,1.7,-4.86,7.56,-2.81,-192.71,24.41
43731,23.2,1012.74,7.23,7.39,0.02,0.05,0.97,-5.38,1.9,-4.77,7.56,-2.8,-192.86,24.41
43762,23.2,1012.74,7.23,7.35,0.02,0.05,0.98,-5.36,1.13,-4.66,7.56,-2.81,-193.01,23.44
43794,23.2,1012.74,7.07,7.3,0.01,0.05,0.98,-5.28,1.18,-4.57,7.56,-2.82,-193.15,28.81
43826,23.2,1012.75,7.07,7.25,0.02,0.05,0.99,-5.42,1.55,-4.71,7.56,-2.82,-193.3,23.44
43859,23.2,1012.75,7.07,7.22,0.02,0.05,0.99,-5.38,1.55,-4.73,7.55,-2.82,-193.46,24.41
43890,23.2,1012.75,7.21,7.22,0.02,0.06,0.98,-5.51,1.97,-4.77,7.56,-2.82,-193.61,23.44
43922,23.2,1012.74,7.18,7.21,0.01,0.05,0.97,-5.45,1.93,-4.82,7.56,-2.8,-193.76,24.41
43954,23.2,1012.74,7.18,7.2,0.02,0.05,1,-5.44,1.67,-4.76,7.55,-2.79,-193.91,24.41
43985,23.2,1012.74,7.18,7.2,0.01,0.06,0.98,-5.38,1.3,-4.77,7.56,-2.8,-194.06,24.9
44018,23.19,1012.73,7.26,7.21,0.03,0.05,0.97,-5.21,1.04,-4.51,7.56,-2.82,-194.21,28.81
44050,23.19,1012.73,7.26,7.22,0.02,0.05,0.97,-5.25,1.5,-4.88,7.56,-2.82,-194.37,23.44
44082,23.19,1012.73,7.26,7.23,0.02,0.05,0.97,-5.51,2.2,-4.85,7.55,-2.8,-194.52,26.37
44113,23.2,1012.78,6.88,7.16,0.03,0.05,0.98,-5.28,1.42,-4.6,7.56,-2.82,-194.66,26.86
44144,23.2,1012.78,6.88,7.11,0.02,0.05,0.97,-5.39,1.38,-4.69,7.56,-2.83,-194.81,24.41
44176,23.2,1012.78,6.88,7.06,0.02,0.05,0.97,-5.32,1.59,-4.88,7.56,-2.82,-194.97,23.93
44210,23.2,1012.77,6.92,7.03,0.01,0.05,0.98,-5.28,1.5,-4.6,7.55,-2.81,-195.12,24.41
44241,23.2,1012.77,6.92,7.01,0.02,0.04,0.99,-5.36,1.99,-4.86,7.55,-2.8,-195.27,23.44
44272,23.2,1012.77,6.92,6.99,0.02,0.05,0.98,-5.13,1.39,-4.76,7.55,-2.81,-195.42,26.37
44304,23.2,1012.77,6.93,6.98,0.01,0.05,0.98,-5.19,1.3,-4.62,7.55,-2.81,-195.57,25.88
44336,23.2,1012.77,6.93,6.97,0.02,0.05,0.97,-5.5,1.85,-4.79,7.55,-2.8,-195.72,23.44
44367,23.2,1012.77,6.93,6.96,0.02,0.05,0.98,-5.32,2.03,-4.95,7.55,-2.79,-195.88,29.3
44401,23.2,1012.77,6.94,6.96,0.02,0.05,0.97,-5.42,1.99,-4.73,7.54,-2.78,-196.04,24.41
44433,23.2,1012.77,6.94,6.95,0.02,0.05,0.98,-5.27,1.7,-4.8,7.54,-2.77,-196.19,23.93
44465,23.2,1012.77,6.94,6.95,0.03,0.05,0.97,-5.27,1.44,-4.88,7.55,-2.79,-196.35,23.44
44497,23.2,1012.8,6.69,6.9,0.02,0.05,0.98,-5.21,1.23,-4.71,7.56,-2.8,-196.5,23.93
44528,23.2,1012.8,6.69,6.86,0.02,0.05,0.98,-5.28,1.56,-4.88,7.56,-2.8,-196.65,24.9
44560,23.2,1012.8,6.69,6.82,0.02,0.05,0.99,-5.22,1.94,-4.92,7.56,-2.79,-196.81,26.86
44594,23.2,1012.82,6.51,6.76,0.02,0.05,0.99,-5.42,1.71,-4.83,7.55,-2.79,-196.97,23.44
44625,23.2,1012.82,6.51,6.71,0.01,0.05,0.98,-5.21,1.71,-4.76,7.56,-2.78,-197.12,23.44
44656,23.2,1012.82,6.51,6.67,0.02,0.05,0.97,-5.19,1.15,-4.51,7.56,-2.79,-197.26,23.93
44688,23.2,1012.83,6.42,6.62,0.02,0.05,0.99,-5.36,1.33,-4.51,7.56,-2.8,-197.4,24.9
44720,23.2,1012.83,6.42,6.58,0.02,0.05,0.99,-5.36,1.73,-4.76,7.56,-2.8,-197.55,23.44
44751,23.2,1012.83,6.42,6.55,0.02,0.05,0.99,-5.24,2,-4.85,7.56,-2.79,-197.71,24.9
44785,23.2,1012.83,6.45,6.53,0.02,0.05,0.97,-5.38,1.47,-4.71,7.55,-2.79,-197.86,26.86
44817,23.2,1012.83,6.45,6.51,0.02,0.05,0.97,-5.44,1.79,-4.97,7.55,-2.78,-198.02,25.88
44849,23.2,1012.83,6.45,6.5,0.02,0.05,0.99,-5.28,1.96,-4.89,7.55,-2.78,-198.18,22.46
44881,23.2,1012.81,6.59,6.52,0.03,0.05,0.98,-5.15,1.87,-4.82,7.56,-2.77,-198.33,28.81
