Time(ms),Temp(C),Pressure(hPa),Alt(m),FiltAlt(m),AccX(g),AccY(g),AccZ(g),GyroX(deg/s),GyroY(deg/s),GyroZ(deg/s),AngleX(deg),AngleY(deg),AngleZ(deg),LM35Temp(C)
1,22.13,1013.25,0.18,0.04,0.04,-0.08,1.17,4.76,-0.79,11.03,8.11,0.37,17.04,20.51
33,22.15,1013.25,0.25,0.08,0.04,-0.08,1.17,4.63,-0.50,10.64,9.00,1.90,17.38,21.00
64,22.15,1013.25,0.25,0.11,0.05,-0.08,1.17,4.85,-0.63,11.06,9.87,3.40,17.73,21.00
94,22.15,1013.25,0.25,0.14,0.04,-0.07,1.17,4.54,-0.68,11.08,10.72,4.87,18.06,20.51
125,22.17,1013.28,-0.03,0.11,0.05,-0.08,1.17,4.66,-0.45,10.76,11.56,6.31,18.39,21.00
159,22.17,1013.28,-0.03,0.08,0.04,-0.08,1.17,4.62,-0.80,11.20,12.39,7.72,18.77,20.51
191,22.17,1013.28,-0.03,0.06,0.05,-0.08,1.17,4.74,-0.85,11.02,13.20,9.09,19.13,20.51
222,22.16,1013.27,0.06,0.06,0.05,-0.07,1.16,4.59,-0.31,10.80,13.98,10.45,19.46,21.00
253,22.16,1013.27,0.06,0.06,0.04,-0.07,1.16,4.71,-0.65,10.96,14.76,11.78,19.80,20.51
285,22.16,1013.27,0.06,0.06,0.04,-0.08,1.17,4.94,-0.74,11.15,15.52,13.08,20.16,20.51
317,22.16,1013.28,-0.06,0.04,0.05,-0.07,1.17,4.76,-1.20,10.99,16.28,14.33,20.51,21.48
350,22.16,1013.28,-0.06,0.02,0.04,-0.08,1.16,4.74,-1.12,10.97,17.01,15.57,20.87,20.51
381,22.16,1013.28,-0.06,0.00,0.04,-0.08,1.17,4.74,-0.80,11.08,17.73,16.79,21.22,20.02
413,22.15,1013.29,-0.10,-0.02,0.05,-0.08,1.17,4.53,-0.53,10.99,18.42,17.98,21.57,20.51
445,22.15,1013.29,-0.10,-0.03,0.04,-0.08,1.18,4.63,-0.45,10.88,19.11,19.17,21.92,20.51
477,22.15,1013.29,-0.10,-0.05,0.05,-0.08,1.16,4.77,-0.30,10.79,19.78,20.33,22.26,21.00
508,22.15,1013.27,0.07,-0.02,0.05,-0.08,1.17,4.82,-0.80,11.11,20.44,21.45,22.60,20.51
542,22.15,1013.27,0.07,-0.00,0.04,-0.07,1.16,4.57,-0.45,10.83,21.10,22.57,22.97,19.53
574,22.15,1013.27,0.07,0.01,0.04,-0.07,1.17,4.88,-0.83,11.08,21.74,23.65,23.33,20.51
605,22.15,1013.26,0.10,0.03,0.05,-0.08,1.16,4.72,-0.86,11.11,22.36,24.70,23.67,21.00
636,22.15,1013.26,0.10,0.04,0.05,-0.08,1.17,4.65,-0.59,10.77,22.96,25.75,24.01,19.53
668,22.15,1013.26,0.10,0.06,0.04,-0.08,1.16,4.59,-0.24,11.05,23.55,26.78,24.36,20.51
702,22.15,1013.28,-0.05,0.03,0.04,-0.08,1.17,4.63,-0.57,11.08,24.15,27.79,24.74,19.53
733,22.15,1013.28,-0.05,0.02,0.05,-0.08,1.16,4.77,-0.16,10.85,24.72,28.78,25.07,21.00
764,22.15,1013.28,-0.05,0.00,0.05,-0.07,1.17,4.83,-1.05,11.09,25.28,29.72,25.42,20.51
796,22.15,1013.28,-0.08,-0.01,0.04,-0.08,1.17,4.89,-1.14,11.26,25.84,30.65,25.78,19.53
828,22.15,1013.28,-0.08,-0.03,0.04,-0.07,1.17,4.69,-1.15,11.08,26.38,31.56,26.13,20.02
859,22.15,1013.28,-0.08,-0.04,0.05,-0.07,1.16,4.65,-0.92,10.99,26.91,32.45,26.48,20.51
893,22.14,1013.27,0.07,-0.02,0.05,-0.07,1.16,4.83,-1.09,11.17,27.44,33.32,26.85,20.51
925,22.14,1013.27,0.07,0.00,0.04,-0.07,1.17,4.85,-1.00,11.18,27.96,34.18,27.21,20.02
957,22.14,1013.27,0.07,0.01,0.04,-0.07,1.17,4.72,-0.89,11.03,28.46,35.02,27.56,20.51
989,22.14,1013.27,0.07,0.03,0.05,-0.08,1.16,4.51,-0.79,11.14,28.95,35.85,27.92,21.00
1020,22.14,1013.27,0.07,0.03,0.05,-0.07,1.17,4.66,-0.62,10.83,29.42,36.67,28.25,21.00
1052,22.14,1013.27,0.07,0.04,0.05,-0.07,1.17,4.56,-0.27,10.91,29.89,37.48,28.60,20.51
1086,22.15,1013.28,-0.03,0.03,0.05,-0.07,1.16,4.57,-0.92,11.09,30.36,38.25,28.98,20.51
1117,22.15,1013.28,-0.03,0.01,0.04,-0.08,1.17,4.62,-0.38,11.00,30.80,39.03,29.32,21.00
1148,22.15,1013.28,-0.03,0.01,0.04,-0.08,1.17,4.56,-0.36,10.89,31.23,39.80,29.66,21.00
1180,22.14,1013.27,0.00,0.00,0.04,-0.08,1.16,4.91,-1.00,11.05,31.67,40.53,30.01,20.51
1212,22.14,1013.27,0.00,0.00,0.02,-0.01,1.17,4.51,1.24,11.47,32.15,41.34,30.38,21.48
1243,22.14,1013.27,0.00,0.00,0.06,-0.05,1.15,10.13,-8.33,28.15,32.76,41.80,31.28,20.51
1277,22.15,1013.27,0.08,0.02,0.07,-0.06,1.15,19.66,7.32,50.97,33.66,42.72,32.96,21.00
1309,22.15,1013.27,0.08,0.03,0.05,-0.02,1.15,12.07,1.59,30.74,34.34,43.47,33.95,21.00
1341,22.15,1013.27,0.08,0.04,0.06,-0.03,1.18,8.48,0.31,21.32,34.87,44.15,34.63,21.00
1373,22.14,1013.29,-0.09,0.01,0.01,-0.02,1.17,11.46,0.34,29.14,35.50,44.86,35.56,20.51
1404,22.14,1013.29,-0.09,-0.01,-0.00,0.02,1.20,10.71,3.29,29.72,36.11,45.66,36.48,20.51
1436,22.14,1013.29,-0.09,-0.02,0.04,0.11,1.15,10.71,2.43,27.37,36.82,46.39,37.36,21.00
1470,22.14,1013.27,0.06,-0.01,0.04,-0.01,1.17,3.73,-0.13,8.50,37.18,47.02,37.65,21.00
1501,22.14,1013.27,0.06,0.01,0.05,0.01,1.17,4.01,-0.80,9.14,37.55,47.61,37.93,20.51
1532,22.14,1013.27,0.06,0.02,0.04,0.02,1.16,4.97,-0.42,11.37,37.96,48.20,38.28,20.51
1564,22.14,1013.26,0.05,0.02,0.04,-0.00,1.16,3.96,-2.50,8.91,38.30,48.71,38.57,21.00
1596,22.15,1013.27,0.05,0.03,0.05,0.01,1.16,3.58,-2.74,8.50,38.64,49.21,38.84,20.51
1627,22.15,1013.27,0.05,0.03,0.06,0.01,1.15,4.86,-0.08,12.07,39.01,49.76,39.23,21.48
1661,22.14,1013.25,0.17,0.06,0.04,0.01,1.16,3.72,-1.83,9.22,39.35,50.27,39.53,21.00
1693,22.14,1013.25,0.17,0.08,0.07,0.01,1.16,4.16,-2.27,9.60,39.68,50.73,39.84,21.00
1725,22.14,1013.25,0.17,0.10,0.04,-0.00,1.17,4.28,-0.59,10.30,40.01,51.26,40.17,20.02
1757,22.14,1013.25,0.08,0.10,0.06,0.00,1.17,4.37,-0.77,10.25,40.33,51.75,40.50,21.00
1788,22.15,1013.27,0.02,0.08,0.06,0.01,1.16,4.59,-1.11,11.76,40.65,52.23,40.86,21.00
1820,22.15,1013.27,0.02,0.07,0.06,0.00,1.16,5.03,0.59,11.72,40.98,52.74,41.24,21.00
1854,22.15,1013.27,0.10,0.07,0.06,0.00,1.17,4.08,-0.99,9.40,41.29,53.20,41.55,19.53
1885,22.15,1013.26,0.10,0.08,0.05,-0.01,1.16,6.25,-1.06,14.60,41.63,53.65,42.01,20.51
1916,22.15,1013.26,0.10,0.08,0.04,0.01,1.17,4.10,-1.41,8.99,41.91,54.10,42.29,21.00
1948,22.15,1013.26,0.10,0.08,0.04,0.00,1.17,4.60,-0.83,11.14,42.20,54.55,42.64,21.48
1980,22.15,1013.26,0.12,0.09,0.06,0.01,1.17,6.37,0.37,16.04,42.55,55.01,43.16,20.51
2011,22.15,1013.26,0.12,0.10,0.07,0.00,1.15,6.76,0.13,15.49,42.90,55.45,43.65,21.48
2045,22.15,1013.26,0.12,0.10,-0.00,-0.01,1.19,4.97,-0.60,11.73,43.18,55.93,44.04,21.00
2077,22.15,1013.26,0.08,0.10,0.05,0.01,1.18,3.59,-2.67,7.87,43.42,56.27,44.29,21.48
2109,22.15,1013.26,0.08,0.10,0.07,0.01,1.13,4.05,0.98,9.18,43.68,56.71,44.58,21.00
2141,22.15,1013.26,0.08,0.09,0.07,0.01,1.16,5.46,-1.20,12.85,43.97,57.07,45.00,21.00
2172,22.15,1013.28,-0.07,0.06,0.05,0.01,1.18,5.05,0.57,11.73,44.24,57.50,45.36,20.51
2204,22.15,1013.28,-0.07,0.03,0.18,-0.01,1.34,2.34,-14.54,10.19,44.40,57.34,45.69,21.00
2238,22.15,1013.28,-0.07,0.01,0.06,0.02,1.22,6.46,-0.63,9.69,44.73,57.72,46.01,21.00
2269,22.15,1013.27,0.05,0.02,0.08,-0.00,1.25,10.89,0.39,12.19,45.15,58.10,46.39,21.00
2300,22.15,1013.27,0.05,0.03,0.07,0.05,1.18,12.02,3.46,10.12,45.65,58.58,46.71,21.48
2332,22.15,1013.27,0.05,0.03,0.01,0.03,1.10,7.76,-1.14,6.67,46.00,58.96,46.92,21.00
2364,22.15,1013.29,-0.09,0.01,0.06,-0.01,1.14,-3.67,-4.21,-11.53,45.94,59.19,46.55,21.00
2395,22.15,1013.29,-0.09,-0.01,0.09,-0.04,1.05,-0.85,-1.81,1.93,45.94,59.45,46.61,20.51
2429,22.15,1013.29,-0.09,-0.03,0.04,0.05,1.17,-0.12,-0.44,7.31,46.05,59.81,46.85,20.51
2461,22.15,1013.28,-0.08,-0.04,0.07,-0.02,1.15,-12.68,-2.57,-23.59,45.69,60.06,46.10,20.51
2493,22.15,1013.28,-0.08,-0.05,0.09,-0.13,0.99,4.77,5.20,6.07,45.76,60.51,46.29,20.02
2525,22.15,1013.28,-0.08,-0.05,0.16,0.15,1.09,11.70,4.36,31.11,46.35,60.87,47.29,20.02
2556,22.15,1013.27,0.03,-0.04,0.01,0.09,1.17,-20.76,-9.18,-66.88,45.86,60.97,45.22,21.00
2590,22.15,1013.27,0.03,-0.02,-0.15,-0.32,1.39,-2.50,7.87,17.83,45.59,61.73,45.82,20.51
2622,22.15,1013.27,0.03,-0.01,0.04,-0.00,1.17,10.05,3.04,29.18,45.97,62.15,46.76,21.00
2653,22.15,1013.25,0.21,0.03,0.02,-0.11,1.20,5.55,-2.96,12.76,46.10,62.40,47.15,21.48
2684,22.15,1013.25,0.21,0.07,-0.05,-0.06,1.21,6.59,3.33,18.76,46.30,62.90,47.73,21.00
2716,22.15,1013.25,0.21,0.09,0.07,0.00,1.20,4.33,-0.42,11.89,46.50,63.17,48.11,21.00
2748,22.16,1013.30,-0.23,0.03,0.05,-0.06,1.17,4.50,-0.18,10.07,46.64,63.44,48.43,21.48
2781,22.16,1013.30,-0.23,-0.02,0.06,-0.06,1.17,3.76,-1.66,8.91,46.75,63.67,48.73,21.00
2812,22.16,1013.30,-0.23,-0.06,0.06,-0.06,1.16,5.00,-1.41,11.70,46.90,63.89,49.09,21.48
2844,22.16,1013.28,0.00,-0.05,0.05,-0.06,1.18,3.63,-4.74,7.73,47.00,64.02,49.34,21.48
2876,22.16,1013.28,0.00,-0.04,0.04,-0.09,1.18,0.36,-1.02,2.33,46.97,64.27,49.41,20.51
2907,22.16,1013.28,0.00,-0.03,0.06,-0.08,1.18,5.09,-2.10,11.92,47.10,64.46,49.80,20.51
2939,22.16,1013.27,0.03,-0.02,0.04,-0.06,1.16,4.16,-1.20,10.33,47.21,64.69,50.12,19.53
2973,22.16,1013.27,0.03,-0.01,0.05,-0.06,1.17,4.48,-2.27,10.76,47.34,64.87,50.48,21.00
3005,22.16,1013.27,0.03,-0.00,0.05,-0.06,1.18,4.04,-1.34,10.60,47.44,65.08,50.82,21.48
3037,22.15,1013.26,0.10,0.02,0.04,-0.07,1.17,4.17,-1.40,11.34,47.55,65.29,51.18,21.00
3068,22.15,1013.26,0.10,0.03,0.00,-0.03,0.93,-0.04,13.03,2.70,47.55,65.98,51.27,21.00
3100,22.15,1013.26,0.10,0.05,0.07,-0.12,1.31,4.60,1.32,10.67,47.62,66.24,51.61,21.00
3132,22.16,1013.27,0.04,0.05,0.03,-0.07,1.18,3.95,0.46,10.45,47.71,66.50,51.94,21.00
3165,22.16,1013.27,0.04,0.05,0.03,-0.08,1.18,4.71,-1.12,11.41,47.81,66.70,52.32,21.00
3196,22.16,1013.27,0.04,0.04,0.04,-0.08,1.18,4.59,-1.11,10.86,47.91,66.90,52.66,21.00
3228,22.16,1013.26,0.11,0.06,0.05,-0.08,1.18,4.62,-0.71,10.83,48.00,67.10,53.00,20.51
3260,22.16,1013.26,0.11,0.07,0.04,-0.07,1.18,4.42,-0.62,11.23,48.10,67.30,53.36,20.51
3291,22.16,1013.26,0.11,0.07,-0.03,0.08,1.15,1.84,-0.07,6.89,48.26,67.58,53.58,21.00
3323,22.16,1013.30,-0.17,0.02,0.03,-0.07,1.19,2.83,-3.11,7.43,48.30,67.71,53.81,21.00
3357,22.16,1013.30,-0.17,-0.01,0.05,-0.08,1.18,4.39,-2.41,11.40,48.38,67.83,54.20,21.00
3389,22.16,1013.30,-0.17,-0.05,0.04,-0.06,1.19,5.32,-2.76,12.73,48.51,67.94,54.61,21.48
3421,22.16,1013.28,-0.06,-0.05,0.04,-0.06,1.20,4.89,-1.89,12.68,48.61,68.09,55.01,21.00
3452,22.16,1013.28,-0.06,-0.05,0.02,-0.05,1.18,4.30,-7.84,11.44,48.70,68.06,55.37,20.51
3484,22.16,1013.28,-0.06,-0.05,0.05,-0.07,1.18,5.47,-4.07,13.40,48.82,68.13,55.80,20.51
3516,22.16,1013.28,-0.02,-0.05,0.08,-0.06,1.18,7.18,-2.54,14.73,48.99,68.21,56.27,21.00
3549,22.16,1013.28,-0.02,-0.04,0.05,-0.07,1.18,5.41,-1.54,12.50,49.11,68.34,56.68,20.02
3580,22.16,1013.28,-0.02,-0.04,0.05,-0.06,1.19,5.05,-2.60,11.81,49.21,68.44,57.05,21.00
3612,22.16,1013.27,0.01,-0.03,0.05,-0.05,1.21,5.76,-0.19,14.57,49.34,68.62,57.51,21.48
3644,22.16,1013.27,0.01,-0.02,0.05,-0.07,1.19,3.96,-0.34,9.14,49.39,68.79,57.81,21.00
3675,22.16,1013.27,0.01,-0.02,0.04,-0.06,1.18,5.88,1.52,14.48,49.51,69.02,58.27,20.51
3709,22.16,1013.27,0.08,0.00,0.03,-0.06,1.19,5.12,3.12,12.79,49.61,69.32,58.69,20.51
3741,22.16,1013.27,0.08,0.02,0.02,-0.05,1.19,2.27,7.29,6.89,49.62,69.74,58.91,20.51
3773,22.16,1013.27,0.08,0.03,0.02,-0.06,1.18,2.08,6.33,6.02,49.62,70.12,59.10,21.00
3805,22.16,1013.27,0.08,0.04,0.04,-0.05,1.18,0.17,1.64,1.76,49.57,70.33,59.16,21.00
3836,22.16,1013.27,0.08,0.05,0.05,-0.06,1.18,1.46,2.17,4.31,49.55,70.54,59.29,21.48
3868,22.16,1013.27,0.08,0.06,0.05,-0.06,1.17,2.68,2.63,6.44,49.57,70.76,59.50,21.48
3902,22.16,1013.27,0.05,0.06,0.03,-0.08,1.17,3.84,-1.44,9.52,49.62,70.87,59.82,21.00
3933,22.16,1013.27,0.05,0.05,0.05,-0.08,1.18,4.50,0.50,10.57,49.66,71.02,60.15,21.00
3964,22.16,1013.27,0.05,0.05,0.04,-0.08,1.17,4.85,0.30,11.26,49.73,71.17,60.50,21.00
3996,22.16,1013.24,0.28,0.10,0.10,-0.09,1.16,5.18,-0.91,11.28,49.79,71.22,60.86,21.00
4028,22.16,1013.24,0.28,0.14,0.04,-0.08,1.15,4.53,-2.01,11.23,49.84,71.30,61.22,20.02
4059,22.16,1013.24,0.28,0.17,0.05,-0.07,1.17,4.45,-2.07,11.67,49.90,71.36,61.60,20.51
4093,22.16,1013.26,0.11,0.15,0.04,-0.08,1.18,2.54,-1.78,6.80,49.89,71.44,61.82,20.51
4125,22.16,1013.26,0.11,0.15,0.06,-0.07,1.18,3.01,-2.12,9.08,49.90,71.49,62.11,21.00
4157,22.16,1013.26,0.11,0.14,0.08,-0.09,1.18,2.50,9.30,4.24,49.87,71.87,62.25,20.51
4189,22.16,1013.24,0.26,0.16,-0.16,-0.17,1.15,14.53,-7.46,28.68,50.15,71.95,63.16,21.00
4220,22.16,1013.24,0.26,0.18,0.01,-0.09,1.19,8.07,-6.62,17.26,50.29,71.89,63.70,21.00
4252,22.16,1013.24,0.26,0.20,0.00,-0.08,1.10,17.08,-3.37,10.05,50.72,71.95,64.02,20.51
4286,22.16,1013.26,0.14,0.19,0.13,0.02,1.25,3.49,-4.76,8.22,50.82,71.83,64.30,20.51
4317,22.16,1013.26,0.14,0.18,0.10,-0.07,1.19,3.93,0.74,11.44,50.84,71.92,64.65,21.48
4348,22.16,1013.26,0.14,0.17,0.05,-0.10,1.16,2.66,-3.00,9.69,50.79,71.94,64.95,20.51
4380,22.16,1013.26,0.09,0.15,0.06,-0.08,1.20,3.64,-0.47,11.26,50.80,72.03,65.32,20.51
4412,22.16,1013.26,0.09,0.14,0.09,-0.06,1.17,4.74,-1.14,11.92,50.86,72.07,65.70,21.48
4443,22.16,1013.26,0.09,0.13,0.03,-0.06,1.16,5.23,-0.19,12.09,50.92,72.19,66.08,20.51
4477,22.17,1013.28,-0.06,0.09,0.05,-0.07,1.16,4.57,-0.54,10.64,50.97,72.28,66.43,20.51
4509,22.17,1013.28,-0.06,0.06,0.02,-0.06,1.19,4.80,0.63,10.04,51.03,72.44,66.76,21.00
4541,22.17,1013.28,-0.06,0.04,0.00,-0.05,1.17,4.39,3.61,9.52,51.09,72.70,67.06,20.51
4573,22.17,1013.26,0.11,0.05,-0.15,-0.08,1.31,6.69,7.08,15.83,51.19,73.19,67.57,21.00
4604,22.17,1013.26,0.11,0.06,-0.03,-0.09,1.20,3.35,-2.74,9.11,51.17,73.27,67.85,20.02
4636,22.17,1013.26,0.11,0.07,0.05,-0.08,1.18,3.93,0.31,9.37,51.17,73.37,68.15,20.51
4670,22.16,1013.27,0.04,0.07,0.04,-0.06,1.18,4.25,-0.92,10.71,51.21,73.43,68.51,21.00
4701,22.16,1013.27,0.04,0.06,0.03,-0.08,1.18,4.59,-2.01,10.82,51.23,73.47,68.85,21.00
4732,22.16,1013.27,0.04,0.06,0.04,-0.07,1.18,5.24,-0.80,11.98,51.29,73.54,69.22,20.51
4764,22.16,1013.27,0.04,0.06,0.05,-0.07,1.17,4.89,-2.07,11.46,51.33,73.56,69.59,21.00
4796,22.16,1013.27,0.04,0.05,0.07,-0.08,1.17,5.79,-3.81,13.02,51.39,73.50,70.00,21.00
4827,22.16,1013.27,0.04,0.05,0.04,-0.06,1.16,4.43,0.37,11.83,51.42,73.61,70.38,21.00
4861,22.16,1014.42,-9.55,-1.87,0.08,-0.07,1.16,6.89,-4.05,17.61,51.53,73.52,70.96,21.00
4893,22.16,1014.42,-9.55,-3.41,0.05,-0.06,1.18,6.77,-2.44,18.15,51.64,73.53,71.54,21.48
4925,22.16,1014.42,-9.55,-4.63,0.05,-0.06,1.18,5.26,-0.88,12.76,51.70,73.58,71.95,19.53
4957,22.16,1017.08,-31.66,-10.04,0.83,-0.11,0.65,7.75,-23.25,29.02,51.77,71.96,72.88,21.00
4988,22.16,1017.08,-31.66,-14.36,0.00,-0.03,1.18,9.44,-9.52,20.22,51.97,71.83,73.51,20.51
5020,22.16,1017.08,-31.66,-17.82,0.11,-0.05,1.16,2.45,4.79,5.17,51.94,72.03,73.67,21.00
5054,22.17,1018.45,-43.02,-22.86,0.02,-0.06,1.19,9.84,-3.37,24.05,52.16,72.06,74.49,21.48
5085,22.17,1018.45,-43.02,-26.89,0.06,-0.03,1.18,7.06,2.71,16.71,52.28,72.25,75.01,20.51
5116,22.17,1018.45,-43.02,-30.12,0.04,-0.05,1.18,5.44,-0.76,13.23,52.34,72.34,75.42,21.48
5148,22.17,1018.60,-44.24,-32.94,0.04,-0.03,1.18,4.57,1.44,10.94,52.38,72.50,75.77,20.51
5180,22.17,1018.60,-44.24,-35.20,0.05,-0.04,1.18,4.43,-0.53,11.06,52.42,72.58,76.12,21.48
5213,22.17,1018.60,-44.24,-37.01,0.03,-0.05,1.19,5.76,0.40,12.73,52.50,72.72,76.54,20.51
5244,22.17,1017.16,-32.33,-36.07,0.04,-0.04,1.19,3.56,5.00,7.72,52.50,72.98,76.78,21.48
5276,22.17,1017.16,-32.33,-35.32,0.05,-0.04,1.17,5.47,-4.07,14.25,52.57,72.94,77.24,21.00
5308,22.17,1017.16,-32.33,-34.73,-0.06,-0.02,1.24,3.85,1.59,9.41,52.60,73.19,77.54,21.00
5339,22.17,1016.27,-24.88,-32.76,0.05,-0.04,1.17,4.66,-0.08,11.34,52.64,73.27,77.90,21.48
5371,22.17,1016.27,-24.88,-31.18,0.02,-0.04,1.18,4.80,-2.30,11.70,52.68,73.31,78.26,20.51
5405,22.17,1016.27,-24.88,-29.92,0.45,-0.39,1.15,1.43,49.84,-8.59,52.31,74.70,77.97,20.51
5437,22.17,1015.23,-16.24,-27.18,0.17,-0.07,1.21,4.17,23.55,16.97,52.31,75.38,78.52,21.00
5469,22.17,1015.23,-16.24,-25.00,-0.06,-0.07,1.17,4.85,-0.85,10.59,52.34,75.50,78.85,20.51
5500,22.17,1015.23,-16.24,-23.24,0.05,-0.04,1.18,4.14,2.62,9.09,52.36,75.62,79.14,21.00
5532,22.17,1014.42,-9.50,-20.50,0.04,-0.04,1.17,3.72,0.68,9.06,52.37,75.69,79.43,21.00
5564,22.17,1014.42,-9.50,-18.30,0.02,-0.04,1.18,2.37,3.88,4.74,52.34,75.88,79.58,21.00
5597,22.17,1014.42,-9.50,-16.54,0.03,-0.03,1.18,-1.20,5.73,-4.66,52.21,76.12,79.42,21.48
5628,22.17,1011.88,11.66,-10.90,0.09,-0.00,1.19,-7.32,7.18,-9.41,51.92,76.33,79.13,21.00
5660,22.17,1011.88,11.66,-6.39,0.07,-0.10,1.14,1.96,4.17,7.32,51.83,76.47,79.37,20.51
5692,22.17,1011.88,11.66,-2.78,0.00,-0.06,1.18,4.05,-1.44,9.61,51.84,76.49,79.67,21.48
5723,22.17,1011.88,62.17,10.21,0.05,-0.07,1.16,4.37,-1.28,10.36,51.86,76.47,80.01,21.48
5755,22.17,1005.83,62.17,20.60,0.05,-0.08,1.16,4.01,-1.17,9.87,51.85,76.46,80.31,20.51
5789,22.17,1005.83,62.17,28.92,0.04,-0.08,1.16,4.36,-1.41,10.42,51.86,76.44,80.67,21.00
5821,22.17,1007.51,48.09,32.75,0.04,-0.07,1.16,4.91,-1.34,11.52,51.89,76.43,81.04,21.00
5853,22.17,1007.51,48.09,35.82,-0.18,-0.06,1.25,4.76,-0.56,13.35,51.93,76.65,81.46,20.51
5884,22.17,1007.51,48.09,38.27,0.12,-0.06,1.15,4.34,-0.27,10.44,51.95,76.59,81.79,20.51
5916,22.17,1007.51,48.09,40.24,0.03,-0.08,1.15,5.23,-2.59,11.05,51.98,76.55,82.14,21.00
5950,22.17,1008.83,37.06,39.60,0.09,-0.06,1.13,4.02,-0.65,9.49,51.99,76.50,82.46,21.00
5981,22.17,1008.83,37.06,39.09,0.03,-0.07,1.17,4.11,-4.47,10.10,51.99,76.40,82.78,21.48
6012,22.17,1008.83,37.06,38.68,0.03,-0.09,1.17,4.66,-3.29,10.57,51.98,76.34,83.10,20.51
6044,22.17,1010.22,25.48,36.04,0.04,-0.08,1.16,4.69,-3.11,11.34,52.00,76.28,83.47,20.51
6076,22.17,1010.22,25.48,33.93,0.59,-0.00,1.08,4.21,-0.97,8.21,52.07,75.74,83.73,20.51
6107,22.17,1010.22,25.48,32.24,0.06,-0.05,1.13,2.98,-9.83,8.77,52.06,75.46,84.01,21.48
6141,22.17,1012.74,4.45,26.69,0.04,-0.07,1.18,3.93,-3.93,9.41,52.06,75.38,84.32,21.00
6173,22.17,1012.74,4.45,22.24,0.04,-0.08,1.18,4.36,1.18,10.67,52.06,75.47,84.66,21.00
6205,22.17,1012.74,4.45,18.68,0.02,-0.08,1.18,5.24,2.46,11.98,52.09,75.62,85.04,21.48
6237,22.17,1015.96,-22.35,10.48,0.05,-0.07,1.18,5.47,4.17,12.76,52.13,75.79,85.45,20.51
6268,22.17,1015.96,-22.35,3.91,0.04,-0.08,1.17,5.47,3.81,12.85,52.16,75.94,85.85,20.51
6300,22.17,1015.96,-22.35,-1.34,0.06,-0.08,1.17,4.80,3.40,11.55,52.17,76.08,86.22,20.51
6334,22.17,1012.24,8.60,0.65,0.05,-0.05,1.19,5.34,3.23,12.82,52.25,76.21,86.66,20.02
6365,22.17,1012.24,8.60,2.24,0.06,-0.06,1.15,4.91,1.14,10.59,52.27,76.26,86.98,20.51
6396,22.17,1012.24,8.60,3.51,0.06,-0.08,1.15,4.71,-0.12,10.82,52.28,76.27,87.32,21.00
6428,22.17,1009.15,34.38,9.69,0.03,-0.08,1.16,4.63,0.11,10.93,52.29,76.32,87.67,21.00
6460,22.17,1009.15,34.38,14.63,0.05,-0.07,1.16,4.88,0.05,11.22,52.30,76.35,88.03,20.51
6491,22.17,1009.15,34.38,18.58,0.04,-0.07,1.15,5.01,-0.36,11.46,52.33,76.37,88.40,20.51
6525,22.17,1008.49,39.94,22.85,0.05,-0.07,1.15,4.72,0.45,11.20,52.35,76.41,88.77,21.00
6557,22.17,1008.49,39.94,26.27,0.05,-0.08,1.16,4.72,-0.30,11.17,52.35,76.42,89.12,21.00
6589,22.17,1008.49,39.94,29.00,0.05,-0.07,1.15,4.79,-0.45,11.34,52.37,76.43,89.49,21.00
6621,22.17,1007.85,45.28,32.26,0.07,-0.09,1.16,4.85,-1.46,11.20,52.38,76.39,89.84,21.48
6652,22.17,1007.85,45.28,34.86,0.04,-0.07,1.17,4.62,-0.47,11.00,52.38,76.41,90.18,19.53
6684,22.17,1007.85,45.28,36.95,0.05,-0.08,1.15,4.68,-0.21,11.03,52.38,76.43,90.54,21.00
6718,22.17,1007.29,49.93,39.54,0.04,-0.08,1.15,4.43,-0.63,10.99,52.39,76.44,90.91,20.51
6749,22.17,1007.29,49.93,41.62,0.03,-0.07,1.17,4.63,-0.07,11.20,52.40,76.48,91.26,21.00
6780,22.17,1007.29,49.93,43.28,0.06,-0.07,1.15,4.76,-0.02,11.25,52.41,76.49,91.61,20.51
6812,22.17,1006.90,53.19,45.26,0.04,-0.07,1.17,4.86,-0.67,11.38,52.43,76.50,91.97,20.02
6844,22.17,1006.90,53.19,46.85,0.05,-0.08,1.15,4.65,-0.80,11.28,52.44,76.50,92.33,21.48
6877,22.17,1006.90,53.19,48.12,0.04,-0.08,1.16,4.85,-0.88,11.22,52.45,76.50,92.70,21.00
6908,22.17,1006.28,58.39,50.17,0.04,-0.07,1.16,4.77,-0.24,11.35,52.46,76.52,93.05,20.51
6940,22.17,1006.28,58.39,51.82,0.02,-0.05,1.17,4.34,-1.15,9.75,52.48,76.53,93.37,21.48
6972,22.17,1006.28,58.39,53.13,0.04,-0.07,1.16,4.60,-0.51,11.08,52.49,76.54,93.72,21.00
7003,22.17,1005.67,63.48,55.20,0.04,-0.07,1.16,4.80,-0.30,11.18,52.51,76.56,94.08,19.53
7035,22.17,1005.67,63.48,56.86,0.04,-0.07,1.16,4.71,-0.19,10.97,52.51,76.58,94.42,21.00
7069,22.17,1005.67,63.48,58.18,0.04,-0.08,1.16,4.59,-0.63,10.89,52.52,76.59,94.79,21.00
7101,22.17,1005.70,63.28,59.20,0.05,-0.08,1.16,4.71,-0.45,10.83,52.52,76.60,95.14,20.02
7133,22.17,1005.70,63.28,60.02,0.05,-0.08,1.16,4.65,-0.27,10.94,52.53,76.61,95.49,21.48
7164,22.17,1005.70,63.28,60.67,0.04,-0.08,1.15,4.80,-0.39,10.74,52.53,76.62,95.82,21.00
7196,22.17,1005.73,63.04,61.14,0.04,-0.08,1.16,4.76,-1.05,11.02,52.54,76.61,96.17,20.51
7228,22.17,1005.73,63.04,61.52,0.04,-0.08,1.15,4.72,-1.20,11.12,52.54,76.60,96.53,20.51
7261,22.17,1005.73,63.04,61.83,0.04,-0.07,1.16,4.68,-1.09,11.05,52.55,76.60,96.89,21.00
7292,22.17,1005.75,62.86,62.03,0.04,-0.07,1.16,4.71,-0.63,10.99,52.56,76.61,97.23,21.00
7324,22.17,1005.75,62.86,62.20,0.04,-0.07,1.16,4.43,-0.70,10.97,52.56,76.61,97.58,21.00
7356,22.17,1005.75,62.86,62.33,0.04,-0.07,1.16,4.76,-0.67,10.88,52.57,76.62,97.93,20.51
7387,22.17,1005.76,62.78,62.42,0.05,-0.07,1.16,4.72,-0.21,10.94,52.58,76.63,98.28,21.48
7419,22.17,1005.76,62.78,62.49,0.03,-0.07,1.16,4.82,-0.59,10.96,52.59,76.65,98.62,21.00
7453,22.17,1005.76,62.78,62.55,0.04,-0.08,1.16,4.48,-0.30,11.05,52.60,76.66,99.00,21.00
7485,22.17,1005.78,62.59,62.56,0.04,-0.08,1.16,4.68,-0.36,10.91,52.60,76.68,99.35,20.51
7517,22.17,1005.78,62.59,62.56,0.04,-0.07,1.15,4.77,-0.77,10.96,52.61,76.68,99.70,20.51
7548,22.17,1005.78,62.59,62.57,0.04,-0.08,1.15,4.88,-1.12,11.02,52.62,76.67,100.04,21.48
7580,22.17,1005.82,62.28,62.51,0.04,-0.07,1.16,4.60,-0.96,10.94,52.62,76.67,100.39,21.00
7614,22.17,1005.82,62.28,62.47,0.04,-0.07,1.17,4.79,-1.12,11.11,52.64,76.66,100.77,21.00
7645,22.17,1005.82,62.28,62.43,0.05,-0.08,1.15,4.68,-0.62,11.08,52.64,76.66,101.11,21.00
7676,22.17,1005.82,62.22,62.39,0.05,-0.08,1.15,4.60,-0.63,10.94,52.63,76.66,101.45,21.00
7708,22.17,1005.82,62.22,62.35,0.04,-0.08,1.17,4.69,-0.47,10.91,52.64,76.67,101.80,21.00
7740,22.17,1005.82,62.22,62.33,0.05,-0.07,1.15,4.77,-0.47,10.93,52.65,76.68,102.15,20.51
7771,22.17,1005.83,62.21,62.30,0.05,-0.07,1.16,4.72,-0.99,10.94,52.66,76.67,102.50,21.00
7805,22.17,1005.83,62.21,62.29,0.04,-0.07,1.16,4.74,-0.45,10.86,52.67,76.69,102.86,21.00
7837,22.17,1005.83,62.21,62.27,0.04,-0.07,1.16,4.65,-0.91,11.02,52.67,76.68,103.21,20.51
7869,22.17,1005.87,61.81,62.18,0.04,-0.08,1.16,4.72,-1.03,11.05,52.67,76.68,103.56,21.00
7901,22.17,1005.87,61.81,62.10,0.04,-0.07,1.15,4.53,-1.12,10.91,52.67,76.67,103.91,20.51
7932,22.17,1005.87,61.81,62.04,0.04,-0.07,1.15,4.59,-0.59,10.94,52.67,76.68,104.25,21.00
7964,22.18,1005.88,61.72,61.98,0.04,-0.07,1.16,4.51,-0.33,10.93,52.67,76.70,104.60,21.00
7998,22.18,1005.88,61.72,61.93,0.04,-0.07,1.17,4.62,-0.86,11.03,52.68,76.70,104.98,21.00
8029,22.18,1005.88,61.72,61.88,0.05,-0.07,1.16,4.56,-0.24,10.91,52.68,76.71,105.31,20.51
8060,22.18,1005.92,61.43,61.79,0.04,-0.08,1.16,4.85,-0.71,11.05,52.68,76.72,105.66,21.48
8092,22.18,1005.92,61.43,61.72,0.05,-0.07,1.16,4.82,-0.85,11.06,52.69,76.71,106.01,20.51
8124,22.18,1005.92,61.43,61.66,0.04,-0.07,1.16,4.86,-1.02,10.99,52.70,76.70,106.36,21.48
8157,22.18,1005.95,61.21,61.57,0.04,-0.08,1.15,4.76,-0.91,11.02,52.71,76.69,106.72,20.51
8188,22.18,1005.95,61.21,61.50,0.05,-0.07,1.15,4.72,-1.09,10.89,52.71,76.68,107.06,20.51
8220,22.18,1005.95,61.21,61.44,0.04,-0.08,1.15,4.59,-1.00,10.99,52.71,76.67,107.41,20.02
8252,22.17,1005.96,61.07,61.37,0.04,-0.07,1.16,4.60,-0.67,10.88,52.71,76.68,107.76,20.51
8283,22.17,1005.96,61.07,61.31,0.04,-0.07,1.15,4.60,-0.42,10.93,52.72,76.69,108.11,20.51
8315,22.17,1005.96,61.07,61.26,0.04,-0.08,1.16,4.74,-0.22,10.89,52.71,76.71,108.45,21.00
8349,22.17,1005.97,60.99,61.21,0.04,-0.08,1.16,4.59,-0.50,11.11,52.72,76.72,108.83,20.02
8381,22.17,1005.97,60.99,61.16,0.04,-0.08,1.15,4.66,-0.27,10.88,52.72,76.74,109.18,21.00
8413,22.17,1005.97,60.99,61.13,0.04,-0.08,1.16,4.71,-0.33,10.94,52.72,76.75,109.53,21.48
8444,22.17,1006.00,60.75,61.05,0.04,-0.08,1.16,4.71,-0.59,10.86,52.72,76.76,109.86,21.48
8476,22.17,1006.00,60.75,60.99,0.04,-0.07,1.16,4.65,-1.06,11.08,52.72,76.75,110.22,21.00
8508,22.17,1006.00,60.75,60.94,0.04,-0.07,1.16,4.74,-0.99,11.00,52.72,76.75,110.57,20.02
8541,22.17,1006.00,60.78,60.91,0.04,-0.08,1.16,4.72,-1.14,11.00,52.73,76.73,110.93,20.51
8572,22.17,1006.00,60.78,60.88,0.04,-0.08,1.17,4.66,-1.03,11.12,52.73,76.73,111.28,21.00
8604,22.17,1006.00,60.78,60.86,0.04,-0.07,1.16,4.40,-0.50,10.89,52.73,76.74,111.63,20.51
8636,22.17,1006.03,60.47,60.78,0.05,-0.07,1.16,4.62,-0.19,10.91,52.73,76.75,111.97,21.00
8667,22.17,1006.03,60.47,60.72,0.04,-0.08,1.17,4.68,-0.47,10.99,52.73,76.76,112.33,20.51
8701,22.17,1006.03,60.47,60.67,0.04,-0.07,1.16,4.57,-0.31,10.88,52.74,76.78,112.69,21.00
8733,22.18,1006.05,60.34,60.60,0.04,-0.07,1.15,4.63,-0.39,10.97,52.74,76.79,113.04,21.48
8765,22.18,1006.05,60.34,60.55,0.04,-0.07,1.16,4.74,-0.62,11.14,52.75,76.79,113.39,20.51
8797,22.18,1006.05,60.34,60.51,0.04,-0.08,1.17,4.86,-1.03,10.99,52.75,76.78,113.74,20.51
8828,22.17,1006.07,60.18,60.44,0.04,-0.08,1.16,4.65,-1.03,11.09,52.75,76.77,114.09,21.00
8860,22.17,1006.07,60.18,60.39,0.04,-0.07,1.16,4.46,-0.83,10.85,52.74,76.77,114.44,21.00
8894,22.17,1006.07,60.18,60.35,0.04,-0.07,1.16,4.72,-0.39,10.94,52.75,76.78,114.81,21.00
8925,22.17,1006.07,60.16,60.31,0.04,-0.08,1.16,4.66,-1.05,11.18,52.75,76.77,115.15,21.00
8956,22.17,1006.07,60.16,60.28,0.04,-0.07,1.17,4.54,-0.67,10.97,52.75,76.78,115.49,21.00
8988,22.17,1006.07,60.16,60.25,0.05,-0.08,1.16,4.54,-0.10,10.97,52.74,76.79,115.85,21.00
9020,22.18,1006.10,59.91,60.19,0.04,-0.07,1.16,4.66,-0.39,10.83,52.74,76.80,116.19,21.00
9051,22.18,1006.10,59.91,60.13,0.03,-0.08,1.16,4.77,-0.91,11.03,52.75,76.80,116.54,21.00
9085,22.18,1006.10,59.91,60.09,0.04,-0.08,1.16,4.62,-0.33,10.76,52.75,76.81,116.90,21.00
9117,22.18,1006.12,59.77,60.02,0.04,-0.08,1.16,4.65,-0.51,10.96,52.75,76.83,117.25,20.51
9149,22.18,1006.12,59.77,59.97,0.05,-0.08,1.16,4.88,-0.88,11.09,52.75,76.82,117.61,20.51
9181,22.18,1006.12,59.77,59.93,0.04,-0.07,1.17,4.77,-0.70,11.23,52.76,76.82,117.96,21.00
9212,22.18,1006.14,59.56,59.86,0.05,-0.07,1.16,4.79,-1.06,10.97,52.76,76.80,118.30,21.48
9246,22.18,1006.14,59.56,59.80,0.04,-0.07,1.15,4.92,-0.70,11.09,52.78,76.81,118.68,19.53
9278,22.18,1006.14,59.56,59.75,0.04,-0.08,1.16,4.69,-1.09,11.15,52.78,76.80,119.04,21.48
9309,22.18,1006.15,59.48,59.69,0.04,-0.08,1.16,4.63,-0.74,10.94,52.77,76.80,119.38,20.51
9340,22.18,1006.15,59.48,59.65,0.05,-0.08,1.15,4.54,-0.53,10.85,52.76,76.80,119.71,21.00
9372,22.18,1006.15,59.48,59.62,0.04,-0.08,1.16,4.71,-0.30,10.99,52.76,76.81,120.07,20.51
9404,22.18,1006.15,59.46,59.59,0.05,-0.07,1.15,4.57,-0.45,10.96,52.76,76.81,120.42,21.00
9437,22.18,1006.15,59.46,59.56,0.04,-0.07,1.16,4.59,-0.30,10.86,52.77,76.83,120.78,20.51
9468,22.18,1006.15,59.46,59.54,0.04,-0.08,1.15,4.80,-0.71,11.02,52.76,76.83,121.12,20.51
9500,22.18,1006.18,59.26,59.49,0.04,-0.08,1.15,4.83,-1.09,11.02,52.77,76.82,121.47,21.00
9532,22.18,1006.18,59.26,59.44,0.04,-0.08,1.15,4.71,-1.11,11.08,52.77,76.80,121.82,20.51
9563,22.18,1006.18,59.26,59.40,0.04,-0.07,1.16,4.69,-0.63,11.11,52.78,76.81,122.18,21.00
9595,22.18,1006.19,59.15,59.35,0.03,-0.08,1.15,4.57,-0.53,10.97,52.77,76.82,122.52,20.51
9629,22.18,1006.19,59.15,59.31,0.02,-0.07,1.16,4.69,-0.88,11.02,52.78,76.83,122.89,21.00
9661,22.18,1006.19,59.15,59.28,0.06,-0.07,1.16,4.69,-0.45,11.06,52.78,76.82,123.25,20.51
9693,22.18,1006.21,58.97,59.22,0.04,-0.08,1.17,4.66,-0.51,10.70,52.78,76.83,123.59,21.00
9724,22.18,1006.21,58.97,59.17,0.03,-0.08,1.16,4.77,-0.28,10.89,52.78,76.86,123.93,21.00
9756,22.18,1006.21,58.97,59.13,0.04,-0.08,1.15,4.76,-0.24,10.88,52.78,76.87,124.28,20.51
9788,22.18,1006.22,58.90,59.08,0.05,-0.07,1.15,4.66,-0.65,10.99,52.78,76.87,124.63,21.00
9821,22.18,1006.22,58.90,59.04,0.04,-0.08,1.16,4.65,-0.36,10.94,52.78,76.88,124.99,20.02
9852,22.18,1006.22,58.90,59.01,0.04,-0.08,1.16,4.83,-0.50,11.03,52.78,76.88,125.33,20.51
9884,22.18,1006.25,58.69,58.95,0.04,-0.07,1.16,4.74,-1.26,11.05,52.79,76.86,125.68,20.02
9916,22.18,1006.25,58.69,58.90,0.04,-0.07,1.15,4.66,-0.91,10.94,52.79,76.86,126.03,21.00
9947,22.18,1006.25,58.69,58.85,0.04,-0.07,1.15,4.53,-0.83,10.99,52.79,76.85,126.39,21.00
9981,22.18,1006.26,58.61,58.80,0.04,-0.07,1.15,4.71,-0.96,11.05,52.81,76.85,126.75,21.00
10013,22.18,1006.26,58.61,58.77,0.04,-0.07,1.15,4.54,-0.82,11.05,52.80,76.85,127.10,21.48
10045,22.18,1006.26,58.61,58.73,0.04,-0.07,1.16,4.56,-0.57,10.96,52.80,76.85,127.45,20.51
10077,22.18,1006.28,58.40,58.67,0.04,-0.07,1.16,4.50,-0.57,10.73,52.80,76.86,127.80,20.51
10108,22.18,1006.28,58.40,58.62,0.04,-0.08,1.16,4.76,-0.25,11.03,52.79,76.87,128.14,20.51
10140,22.18,1006.28,58.40,58.57,0.05,-0.07,1.15,4.86,-0.51,10.99,52.80,76.86,128.49,20.51
10174,22.18,1006.29,58.30,58.52,0.04,-0.08,1.15,4.53,-0.22,10.64,52.80,76.88,128.85,21.00
10205,22.18,1006.29,58.30,58.48,0.05,-0.08,1.15,4.82,-0.77,11.08,52.80,76.86,129.20,21.00
10236,22.18,1006.29,58.30,58.44,0.05,-0.07,1.15,4.94,-1.12,10.93,52.80,76.84,129.53,21.00
10268,22.18,1006.29,58.30,58.41,0.04,-0.08,1.16,4.71,-1.08,11.06,52.80,76.83,129.89,19.53
10300,22.18,1006.27,58.51,58.43,0.05,-0.08,1.15,4.57,-0.73,10.94,52.79,76.83,130.24,20.51
10331,22.18,1006.27,58.51,58.45,0.04,-0.08,1.16,4.66,-0.70,10.89,52.79,76.83,130.59,20.51
10365,22.18,1006.27,58.51,58.46,0.04,-0.08,1.15,4.68,-0.99,11.09,52.80,76.82,130.95,21.00
10397,22.18,1006.32,58.03,58.37,0.04,-0.08,1.15,4.56,-0.74,10.91,52.79,76.82,131.30,19.53
10429,22.18,1006.32,58.03,58.31,0.03,-0.07,1.16,4.59,-0.22,10.86,52.79,76.84,131.65,20.02
10461,22.18,1006.32,58.03,58.25,0.03,-0.07,1.16,4.76,-0.18,10.94,52.80,76.87,132.00,20.02
10492,22.18,1006.32,58.10,58.22,0.04,-0.07,1.16,4.76,-0.45,11.05,52.80,76.88,132.34,20.51
10526,22.18,1006.32,58.10,58.20,0.04,-0.08,1.16,4.66,-0.31,10.83,52.80,76.89,132.71,21.48
10558,22.18,1006.32,58.10,58.18,0.04,-0.08,1.16,4.59,-0.31,10.94,52.80,76.91,133.06,20.51
10589,22.18,1006.30,58.21,58.18,0.04,-0.08,1.16,4.79,-1.06,11.09,52.80,76.90,133.41,21.00
10620,22.18,1006.30,58.21,58.19,0.04,-0.07,1.16,4.50,-0.86,11.18,52.79,76.89,133.75,21.00
10652,22.18,1006.30,58.21,58.19,0.04,-0.08,1.15,4.72,-0.76,11.00,52.79,76.89,134.10,20.51
10684,22.18,1006.32,58.05,58.16,0.05,-0.07,1.16,4.60,-0.39,10.94,52.79,76.90,134.45,20.51
10717,22.18,1006.32,58.05,58.14,0.04,-0.07,1.16,4.62,-0.48,11.00,52.80,76.90,134.82,21.00
10748,22.18,1006.32,58.05,58.12,0.04,-0.07,1.15,4.68,-0.45,10.99,52.80,76.91,135.16,21.48
10780,22.18,1006.35,57.78,58.05,0.04,-0.08,1.15,4.83,-0.47,10.88,52.80,76.91,135.51,20.02
10812,22.18,1006.35,57.78,58.00,0.05,-0.07,1.15,4.80,-0.79,11.08,52.81,76.90,135.86,21.00
10843,22.18,1006.35,57.78,57.95,0.04,-0.08,1.15,4.79,-1.20,10.96,52.80,76.88,136.21,21.00
10877,22.18,1006.36,57.75,57.91,0.04,-0.08,1.16,4.71,-0.41,10.89,52.81,76.90,136.57,21.00
10909,22.18,1006.36,57.75,57.88,0.04,-0.08,1.16,4.71,-0.53,10.94,52.81,76.90,136.92,21.00
10941,22.18,1006.36,57.75,57.85,0.04,-0.08,1.16,4.86,-0.96,11.22,52.81,76.89,137.28,21.48
10973,22.18,1006.40,57.44,57.77,0.04,-0.08,1.16,4.69,-1.20,11.09,52.81,76.88,137.63,21.00
11004,22.18,1006.40,57.44,57.71,0.04,-0.08,1.15,4.79,-0.94,10.96,52.80,76.87,137.97,21.00
11036,22.18,1006.40,57.44,57.65,0.04,-0.07,1.16,4.72,-0.76,10.96,52.81,76.87,138.32,21.00
11070,22.18,1006.38,57.53,57.63,0.04,-0.08,1.16,4.85,-0.99,11.15,52.82,76.86,138.70,21.48
11101,22.18,1006.38,57.53,57.61,0.05,-0.08,1.16,4.76,-0.54,11.02,52.82,76.86,139.05,20.02
11132,22.18,1006.38,57.53,57.59,0.04,-0.08,1.16,4.69,-0.34,10.82,52.81,76.87,139.38,21.00
11164,22.18,1006.41,57.31,57.54,0.05,-0.07,1.16,4.56,-0.45,10.91,52.81,76.87,139.73,21.48
11196,22.18,1006.41,57.31,57.49,0.04,-0.07,1.16,4.89,-1.11,11.17,52.82,76.85,140.09,21.00
11227,22.18,1006.41,57.31,57.45,0.04,-0.07,1.15,4.74,-1.08,11.11,52.82,76.84,140.44,20.02
11261,22.18,1006.43,57.18,57.40,0.04,-0.07,1.15,4.69,-0.22,10.83,52.83,76.86,140.80,19.53
11293,22.18,1006.43,57.18,57.36,0.05,-0.08,1.15,4.69,-0.42,11.06,52.83,76.86,141.15,20.51
11325,22.18,1006.43,57.18,57.32,0.04,-0.07,1.16,4.94,-0.82,11.22,52.84,76.86,141.51,21.00
11357,22.18,1006.43,57.13,57.28,0.04,-0.08,1.16,4.74,-0.99,11.12,52.83,76.86,141.87,21.00
11388,22.18,1006.43,57.13,57.25,0.04,-0.08,1.15,4.62,-0.89,11.03,52.83,76.85,142.21,21.00
11422,22.18,1006.43,57.13,57.23,0.05,-0.08,1.16,4.85,-0.88,11.02,52.84,76.83,142.59,19.53
11454,22.18,1006.42,57.20,57.22,0.05,-0.08,1.16,4.71,-1.25,11.03,52.84,76.81,142.94,21.48
11485,22.18,1006.42,57.20,57.22,0.04,-0.08,1.16,4.60,-0.63,11.03,52.83,76.81,143.28,20.51
11516,22.18,1006.42,57.20,57.21,0.04,-0.07,1.15,4.59,-0.38,10.80,52.82,76.83,143.62,20.51
11548,22.18,1006.44,57.07,57.19,0.04,-0.08,1.15,4.59,-0.21,10.79,52.81,76.84,143.96,21.48
11580,22.18,1006.44,57.07,57.16,0.05,-0.08,1.16,4.79,-0.91,10.99,52.81,76.83,144.31,21.00
11613,22.18,1006.44,57.07,57.14,0.04,-0.08,1.16,4.65,-0.48,11.00,52.82,76.84,144.68,20.51
11644,22.19,1006.47,56.78,57.07,0.04,-0.08,1.16,4.63,-1.20,11.17,52.81,76.82,145.02,20.51
11676,22.19,1006.47,56.78,57.01,0.05,-0.07,1.16,4.62,-0.91,10.97,52.81,76.81,145.37,21.00
11708,22.19,1006.47,56.78,56.97,0.04,-0.08,1.16,4.68,-0.80,10.89,52.81,76.81,145.72,21.00
11739,22.18,1006.47,56.77,56.93,0.05,-0.07,1.15,4.77,-0.65,10.96,52.81,76.81,146.07,20.51
11771,22.18,1006.47,56.77,56.90,0.04,-0.08,1.16,4.68,-0.51,10.96,52.81,76.82,146.41,20.02
11811,22.18,1006.47,56.77,56.87,0.04,-0.07,1.15,4.66,-0.83,11.14,52.85,76.81,146.86,21.00
11843,22.19,1006.49,56.61,56.82,0.04,-0.08,1.16,4.54,-0.80,10.91,52.84,76.81,147.21,21.48
11874,22.19,1006.49,56.61,56.78,0.04,-0.08,1.16,4.66,-0.22,10.89,52.83,76.82,147.54,21.00
11905,22.19,1006.49,56.61,56.75,0.04,-0.07,1.16,4.62,-0.41,10.94,52.83,76.84,147.88,21.00
11937,22.19,1006.49,56.61,56.72,0.04,-0.08,1.15,4.88,-0.83,11.23,52.84,76.83,148.24,20.51
11971,22.19,1006.49,56.61,56.70,0.04,-0.08,1.16,4.59,-0.30,10.76,52.84,76.84,148.61,20.02
12002,22.19,1006.49,56.61,56.68,0.04,-0.08,1.15,4.76,-0.99,10.99,52.84,76.83,148.95,21.00
12033,22.19,1006.52,56.43,56.63,0.05,-0.08,1.16,4.69,-1.20,10.99,52.83,76.81,149.29,20.51
12065,22.19,1006.52,56.43,56.59,0.04,-0.08,1.16,4.53,-0.79,10.93,52.82,76.81,149.64,21.00
12097,22.19,1006.52,56.43,56.56,0.04,-0.08,1.16,4.54,-0.50,10.97,52.82,76.82,149.99,21.48
12128,22.19,1006.52,56.39,56.52,0.04,-0.08,1.15,4.79,-0.25,10.86,52.81,76.84,150.33,21.00
12161,22.19,1006.52,56.39,56.50,0.04,-0.07,1.16,4.71,-0.30,10.77,52.82,76.85,150.68,21.48
12193,22.19,1006.52,56.39,56.47,0.04,-0.07,1.16,4.82,-0.12,10.91,52.83,76.87,151.03,20.51
12225,22.18,1006.50,56.52,56.48,0.05,-0.08,1.16,4.59,-0.70,11.05,52.82,76.87,151.39,21.00
12256,22.18,1006.50,56.52,56.49,0.04,-0.08,1.15,4.72,-1.03,11.09,52.82,76.86,151.73,21.00
12287,22.18,1006.50,56.52,56.50,0.04,-0.07,1.16,4.63,-0.67,11.11,52.82,76.87,152.07,20.51
12321,22.18,1006.52,56.44,56.49,0.04,-0.08,1.16,4.65,-0.96,10.97,52.82,76.86,152.45,20.51
12353,22.18,1006.52,56.44,56.48,0.04,-0.08,1.16,4.83,-0.94,10.80,52.83,76.85,152.79,20.51
12384,22.18,1006.52,56.44,56.47,0.04,-0.08,1.15,4.50,-0.27,10.94,52.81,76.86,153.13,19.53
12415,22.19,1006.55,56.14,56.40,0.04,-0.07,1.15,4.65,-0.24,10.88,52.81,76.88,153.47,20.51
12447,22.19,1006.55,56.14,56.35,0.04,-0.07,1.16,4.63,-0.31,10.91,52.81,76.89,153.82,20.51
12479,22.19,1006.55,56.14,56.31,0.04,-0.07,1.15,4.91,-0.94,11.15,52.82,76.88,154.17,21.00
12512,22.19,1006.55,56.13,56.27,0.04,-0.08,1.15,4.76,-0.88,10.99,52.83,76.87,154.54,21.48
12543,22.19,1006.55,56.13,56.24,0.03,-0.07,1.16,4.69,-1.09,11.25,52.83,76.87,154.89,20.51
12575,22.19,1006.55,56.13,56.22,0.04,-0.08,1.16,4.68,-0.94,10.96,52.83,76.85,155.24,21.00
12607,22.19,1006.54,56.19,56.21,0.04,-0.08,1.15,4.66,-0.80,10.99,52.83,76.85,155.59,20.51
12638,22.19,1006.54,56.19,56.21,0.04,-0.08,1.16,4.59,-0.31,10.82,52.82,76.87,155.92,21.00
12669,22.19,1006.54,56.19,56.21,0.04,-0.08,1.16,4.60,-0.54,10.99,52.81,76.88,156.26,21.48
12703,22.19,1006.58,55.89,56.14,0.04,-0.08,1.16,4.50,-0.33,10.99,52.81,76.89,156.64,21.48
12735,22.19,1006.58,55.89,56.09,0.04,-0.07,1.16,4.56,-0.12,10.97,52.82,76.91,156.99,21.48
12766,22.19,1006.58,55.89,56.05,0.04,-0.08,1.16,4.82,-1.11,10.96,52.81,76.89,157.33,19.53
12797,22.19,1006.58,55.88,56.02,0.04,-0.07,1.15,4.77,-1.17,10.97,52.81,76.88,157.67,21.48
12829,22.19,1006.58,55.88,55.99,0.04,-0.08,1.16,4.69,-0.80,11.00,52.81,76.88,158.02,21.00
12863,22.19,1006.58,55.88,55.97,0.05,-0.07,1.15,4.79,-1.05,10.82,52.82,76.86,158.39,21.00
12894,22.18,1006.60,55.73,55.92,0.03,-0.07,1.16,4.69,-0.85,11.08,52.82,76.87,158.73,21.48
12925,22.18,1006.60,55.73,55.89,0.04,-0.07,1.16,4.62,-0.42,11.00,52.81,76.87,159.07,21.00
12957,22.18,1006.60,55.73,55.86,0.06,-0.07,1.16,4.46,-0.15,10.88,52.81,76.87,159.42,20.51
12989,22.19,1006.61,55.62,55.81,0.03,-0.08,1.16,4.62,-0.57,10.89,52.80,76.89,159.77,21.00
13021,22.19,1006.61,55.62,55.77,0.04,-0.07,1.15,4.83,-0.70,11.31,52.81,76.88,160.13,21.00
13054,22.19,1006.61,55.62,55.74,0.04,-0.08,1.15,4.76,-0.24,10.80,52.82,76.89,160.49,20.51
13086,22.19,1006.63,55.47,55.69,0.03,-0.07,1.16,4.65,-0.21,10.86,52.82,76.92,160.84,21.48
13118,22.19,1006.63,55.47,55.64,0.04,-0.07,1.16,4.60,-0.22,10.79,52.82,76.93,161.18,21.00
13149,22.19,1006.63,55.47,55.61,0.04,-0.08,1.16,4.76,-0.86,11.03,52.81,76.93,161.52,21.48
13180,22.19,1006.63,55.46,55.58,0.04,-0.08,1.16,4.60,-0.68,11.02,52.80,76.93,161.86,21.00
13212,22.19,1006.63,55.46,55.55,0.04,-0.07,1.16,4.56,-0.30,11.02,52.80,76.94,162.22,20.51
13246,22.19,1006.63,55.46,55.54,0.03,-0.07,1.15,4.60,-0.91,11.05,52.81,76.94,162.59,21.00
13277,22.18,1006.63,55.50,55.53,0.05,-0.07,1.15,4.65,-0.36,10.93,52.80,76.94,162.93,21.00
13308,22.18,1006.63,55.50,55.52,0.04,-0.08,1.16,4.53,-0.47,10.83,52.79,76.95,163.27,21.48
13340,22.18,1006.63,55.50,55.52,0.04,-0.07,1.16,4.76,-0.44,10.70,52.79,76.95,163.61,20.51
13372,22.19,1006.65,55.33,55.48,0.04,-0.07,1.15,4.88,-0.71,11.00,52.80,76.95,163.96,21.00
13405,22.19,1006.65,55.33,55.45,0.04,-0.07,1.16,4.89,-0.62,11.18,52.82,76.95,164.33,21.48
13436,22.19,1006.65,55.33,55.43,0.04,-0.07,1.16,4.82,-0.86,11.06,52.82,76.94,164.67,20.51
13468,22.18,1006.66,55.23,55.39,0.05,-0.08,1.16,4.79,-1.00,11.08,52.82,76.93,165.03,21.00
13500,22.18,1006.66,55.23,55.36,0.05,-0.08,1.15,4.68,-0.89,11.05,52.82,76.92,165.38,20.51
13531,22.18,1006.66,55.23,55.33,0.04,-0.07,1.16,4.63,-0.57,10.96,52.82,76.92,165.73,21.00
13563,22.19,1006.67,55.12,55.29,0.04,-0.08,1.16,4.57,-0.50,10.93,52.81,76.92,166.07,21.00
13597,22.19,1006.67,55.12,55.26,0.04,-0.07,1.17,4.43,-0.85,10.82,52.81,76.91,166.44,20.02
13629,22.19,1006.67,55.12,55.23,0.05,-0.07,1.16,4.60,-0.45,10.99,52.81,76.91,166.79,21.00
13661,22.19,1006.67,55.12,55.21,0.04,-0.07,1.16,4.65,-0.30,10.93,52.82,76.93,167.14,20.51
13692,22.19,1006.67,55.12,55.19,0.05,-0.07,1.16,4.66,-0.51,11.05,52.81,76.93,167.48,21.00
13724,22.19,1006.67,55.12,55.18,0.04,-0.07,1.16,4.76,-0.59,11.12,52.82,76.93,167.84,21.00
13758,22.19,1006.71,54.77,55.10,0.04,-0.08,1.16,4.68,-0.33,10.85,52.82,76.94,168.21,21.00
13789,22.19,1006.71,54.77,55.03,0.04,-0.08,1.16,4.76,-0.85,11.14,52.81,76.94,168.55,21.00
13820,22.19,1006.71,54.77,54.98,0.04,-0.08,1.15,4.56,-1.03,11.02,52.81,76.92,168.89,21.48
13852,22.19,1006.68,55.03,54.99,0.04,-0.07,1.15,4.76,-0.89,10.97,52.81,76.91,169.24,20.51
13884,22.19,1006.68,55.03,55.00,0.04,-0.08,1.15,4.65,-0.63,10.86,52.81,76.91,169.59,20.51
13915,22.19,1006.68,55.03,55.00,0.05,-0.08,1.15,4.43,-0.44,10.97,52.80,76.92,169.94,20.51
13949,22.19,1006.72,54.73,54.95,0.04,-0.08,1.15,4.72,-0.65,10.93,52.80,76.91,170.30,21.48
13981,22.19,1006.72,54.73,54.91,0.04,-0.07,1.15,4.71,-0.31,10.96,52.80,76.92,170.65,20.51
14013,22.19,1006.72,54.73,54.87,0.04,-0.07,1.15,4.74,-0.24,10.85,52.81,76.94,171.00,21.48
14045,22.19,1006.70,54.87,54.87,0.04,-0.07,1.16,4.51,-0.28,10.99,52.81,76.95,171.35,20.51
14076,22.19,1006.70,54.87,54.87,0.04,-0.08,1.16,4.79,-0.62,11.03,52.81,76.95,171.70,21.00
14108,22.19,1006.70,54.87,54.87,0.04,-0.08,1.16,4.80,-1.03,11.06,52.81,76.94,172.05,20.51
14142,22.19,1006.71,54.84,54.86,0.05,-0.07,1.15,4.69,-0.22,11.02,52.82,76.94,172.42,21.00
14173,22.19,1006.71,54.84,54.86,0.04,-0.07,1.15,4.79,-1.02,11.05,52.83,76.93,172.77,20.51
14204,22.19,1006.71,54.84,54.86,0.04,-0.08,1.15,4.66,-0.89,10.94,52.81,76.93,173.11,21.00
14236,22.19,1006.72,54.71,54.83,0.04,-0.07,1.16,4.65,-0.82,10.93,52.81,76.92,173.45,21.00
14268,22.19,1006.72,54.71,54.80,0.04,-0.07,1.16,4.65,-0.33,10.88,52.82,76.93,173.80,21.48
14301,22.19,1006.72,54.71,54.79,0.04,-0.08,1.16,4.60,-0.41,10.99,52.82,76.94,174.17,20.51
14332,22.19,1006.72,54.46,54.72,0.04,-0.08,1.16,4.57,-0.30,10.88,52.81,76.95,174.50,21.00
14364,22.19,1006.75,54.46,54.67,0.04,-0.08,1.15,4.92,-0.31,10.86,52.81,76.96,174.85,21.00
14396,22.19,1006.75,54.46,54.63,0.04,-0.08,1.16,4.80,-0.74,11.11,52.81,76.96,175.21,21.00
14427,22.19,1006.75,54.46,54.59,0.04,-0.07,1.16,4.77,-0.89,11.18,52.82,76.95,175.56,21.00
14459,22.19,1006.76,54.35,54.54,0.05,-0.07,1.15,4.74,-1.05,11.03,52.82,76.93,175.91,20.51
14493,22.19,1006.76,54.35,54.51,0.04,-0.08,1.15,4.80,-0.82,11.03,52.83,76.92,176.28,21.00
14525,22.19,1006.76,54.35,54.47,0.04,-0.08,1.15,4.74,-1.35,11.06,52.83,76.90,176.64,21.48
14557,22.19,1006.76,54.39,54.46,0.04,-0.08,1.15,4.69,-0.96,11.08,52.82,76.88,176.99,21.00
14588,22.19,1006.76,54.39,54.45,0.04,-0.07,1.16,4.59,-0.59,10.93,52.82,76.89,177.33,20.02
14620,22.19,1006.76,54.39,54.44,0.04,-0.07,1.16,4.60,-0.30,10.89,52.82,76.90,177.68,20.51
14652,22.19,1006.75,54.44,54.44,0.04,-0.07,1.16,4.53,-0.15,11.06,52.81,76.92,178.03,20.51
14685,22.19,1006.75,54.44,54.44,0.04,-0.07,1.16,4.54,-0.36,10.86,52.82,76.93,178.39,21.48
14716,22.19,1006.75,54.44,54.44,0.04,-0.08,1.15,4.77,-0.59,11.08,52.81,76.93,178.73,21.00
14748,22.19,1006.77,54.31,54.41,0.04,-0.08,1.16,4.80,-1.00,10.89,52.82,76.92,179.08,20.02
14780,22.19,1006.77,54.31,54.39,0.04,-0.07,1.16,4.74,-1.09,11.05,52.82,76.91,179.43,20.51
14811,22.19,1006.77,54.31,54.38,0.04,-0.08,1.15,4.62,-0.70,10.76,52.82,76.91,179.78,19.53
14845,22.19,1006.79,54.16,54.33,0.04,-0.08,1.16,4.82,-0.96,11.08,52.83,76.90,180.14,20.51
14877,22.19,1006.79,54.16,54.30,0.04,-0.07,1.16,4.74,-1.03,11.05,52.83,76.89,180.50,21.00
14909,22.19,1006.79,54.16,54.27,0.05,-0.08,1.16,4.71,-0.79,11.09,52.83,76.88,180.85,21.00
14941,22.19,1006.81,54.01,54.22,0.04,-0.07,1.15,4.53,-0.89,11.08,52.83,76.87,181.21,20.51
14972,22.19,1006.81,54.01,54.17,0.04,-0.08,1.15,4.65,-0.56,10.93,52.82,76.87,181.55,20.51
15004,22.19,1006.81,54.01,54.14,0.05,-0.07,1.17,4.62,-0.27,10.89,52.82,76.88,181.90,21.00
15038,22.19,1006.79,54.15,54.14,0.04,-0.08,1.16,4.56,-0.60,11.03,52.83,76.88,182.27,21.48
15069,22.19,1006.79,54.15,54.14,0.04,-0.08,1.16,4.77,-0.36,10.99,52.82,76.89,182.61,20.51
15100,22.19,1006.79,54.15,54.14,0.04,-0.08,1.15,4.53,-0.48,10.86,52.81,76.90,182.95,20.02
15132,22.19,1006.80,54.06,54.13,0.04,-0.08,1.16,4.60,-0.67,11.00,52.80,76.90,183.30,21.00
15164,22.19,1006.80,54.06,54.12,0.04,-0.07,1.16,4.89,-1.08,11.14,52.81,76.88,183.66,21.48
15197,22.19,1006.80,54.06,54.11,0.04,-0.08,1.16,4.72,-0.60,11.02,52.82,76.88,184.02,21.00
15228,22.19,1006.80,54.02,54.09,0.04,-0.08,1.16,4.83,-1.05,10.96,52.81,76.87,184.36,21.00
15260,22.19,1006.80,54.02,54.07,0.05,-0.08,1.16,4.79,-1.21,11.12,52.81,76.85,184.72,20.51
15292,22.19,1006.80,54.02,54.06,0.04,-0.08,1.16,4.60,-0.77,11.14,52.81,76.85,185.07,20.51
15323,22.19,1006.81,53.96,54.04,0.04,-0.07,1.16,4.69,-0.63,11.00,52.81,76.85,185.42,20.51
15355,22.19,1006.81,53.96,54.03,0.05,-0.08,1.16,4.56,-0.21,10.97,52.80,76.86,185.76,20.51
15389,22.19,1006.81,53.96,54.01,0.03,-0.07,1.16,4.59,-0.91,10.99,52.81,76.86,186.14,20.51
15421,22.19,1006.82,53.92,53.99,0.04,-0.08,1.15,4.65,-0.70,11.02,52.81,76.86,186.49,20.51
15453,22.19,1006.82,53.92,53.98,0.04,-0.08,1.15,4.59,-0.08,11.06,52.80,76.88,186.84,21.00
15484,22.19,1006.82,53.92,53.97,0.04,-0.08,1.16,4.46,-0.22,10.83,52.79,76.89,187.18,20.51
15516,22.19,1006.85,53.62,53.90,0.05,-0.07,1.16,4.76,-0.56,10.93,52.79,76.89,187.53,20.51
15548,22.19,1006.85,53.62,53.84,0.05,-0.08,1.16,4.82,-0.97,11.08,52.80,76.88,187.88,20.51
15581,22.19,1006.85,53.62,53.80,0.04,-0.07,1.16,4.94,-0.91,10.97,52.82,76.87,188.25,20.51
15612,22.19,1006.85,53.64,53.77,0.05,-0.07,1.15,4.65,-1.15,11.09,52.81,76.85,188.59,21.00
15644,22.19,1006.85,53.64,53.74,0.05,-0.08,1.16,4.95,-1.20,10.94,52.82,76.83,188.94,21.00
15676,22.19,1006.85,53.64,53.72,0.04,-0.07,1.16,4.40,-0.74,10.96,52.82,76.83,189.29,21.00
15707,22.19,1006.87,53.45,53.67,0.05,-0.07,1.15,4.62,-0.74,11.18,52.82,76.82,189.65,21.00
15741,22.19,1006.87,53.45,53.62,0.04,-0.07,1.16,4.62,-1.23,11.00,52.82,76.80,190.01,21.00
15773,22.19,1006.87,53.45,53.59,0.04,-0.08,1.16,4.72,-0.77,11.09,52.82,76.81,190.37,21.00
15805,22.19,1006.85,53.60,53.59,0.05,-0.08,1.17,4.48,-0.89,11.05,52.82,76.79,190.72,20.51
15837,22.19,1006.85,53.60,53.59,0.04,-0.08,1.16,4.45,-0.59,11.05,52.80,76.80,191.07,20.02
15868,22.19,1006.85,53.60,53.59,0.04,-0.08,1.16,4.65,-0.22,10.79,52.79,76.82,191.41,21.00
15900,22.19,1006.88,53.40,53.55,0.05,-0.07,1.15,4.82,0.27,11.47,52.80,76.84,191.77,20.51
15934,22.19,1006.88,53.40,53.52,0.03,-0.07,1.16,4.28,-1.84,10.22,52.80,76.81,192.12,21.00
15965,22.19,1006.88,53.40,53.50,0.01,-0.07,1.16,4.63,0.08,10.76,52.80,76.87,192.46,21.00
15996,22.19,1006.88,53.35,53.47,0.07,-0.08,1.15,4.85,-1.05,11.05,52.79,76.83,192.80,20.02
16028,22.19,1006.88,53.35,53.44,0.02,-0.08,1.17,4.83,-1.47,11.25,52.80,76.83,193.16,20.51
16060,22.19,1006.88,53.35,53.43,0.05,-0.08,1.15,4.66,-0.67,11.05,52.79,76.82,193.51,21.00
16091,22.19,1006.91,53.14,53.37,0.04,-0.07,1.15,4.50,-0.80,10.89,52.79,76.82,193.86,20.51
16125,22.19,1006.91,53.14,53.32,0.04,-0.07,1.16,4.83,-0.86,11.25,52.80,76.81,194.23,20.51
16157,22.19,1006.91,53.14,53.28,0.04,-0.08,1.16,4.68,-0.96,11.11,52.80,76.80,194.59,21.48
16189,22.19,1006.90,53.22,53.27,0.04,-0.07,1.15,4.51,-0.56,11.09,52.80,76.81,194.94,20.51
16221,22.19,1006.90,53.22,53.26,0.05,-0.08,1.15,4.68,-0.13,10.88,52.80,76.82,195.29,20.51
16252,22.19,1006.90,53.22,53.25,0.04,-0.07,1.15,4.83,-0.79,11.26,52.80,76.81,195.64,19.53
16286,22.19,1006.91,53.09,53.22,0.04,-0.07,1.16,4.68,-0.47,11.02,52.81,76.83,196.01,20.51
16318,22.19,1006.91,53.09,53.20,0.05,-0.07,1.16,4.68,-0.19,10.88,52.81,76.83,196.36,20.51
16349,22.19,1006.91,53.09,53.18,0.04,-0.07,1.15,4.86,-1.00,10.91,52.81,76.83,196.70,21.00
16380,22.19,1006.93,53.00,53.14,0.04,-0.07,1.15,5.06,-0.97,11.23,52.82,76.82,197.05,21.48
16412,22.19,1006.93,53.00,53.11,0.05,-0.07,1.16,4.77,-1.08,10.96,52.83,76.81,197.40,21.00
16444,22.19,1006.93,53.00,53.09,0.04,-0.07,1.17,4.68,-0.70,11.14,52.83,76.81,197.76,21.00
16477,22.19,1006.94,52.91,53.05,0.04,-0.08,1.16,4.62,-1.05,11.02,52.83,76.80,198.12,20.51
16508,22.19,1006.94,52.91,53.03,0.05,-0.08,1.16,4.66,-0.89,10.91,52.82,76.79,198.46,21.00
16540,22.19,1006.94,52.91,53.00,0.04,-0.08,1.16,4.56,-0.47,10.96,52.82,76.80,198.81,20.51
16572,22.19,1006.93,52.95,52.99,0.04,-0.07,1.16,4.62,-0.39,10.93,52.82,76.81,199.16,21.00
16603,22.19,1006.93,52.95,52.99,0.04,-0.07,1.16,4.63,-0.12,10.80,52.82,76.83,199.50,21.00
16637,22.19,1006.93,52.95,52.98,0.05,-0.07,1.16,4.74,-0.80,10.96,52.83,76.83,199.86,21.00
16669,22.19,1006.96,52.75,52.93,0.04,-0.07,1.16,4.62,-0.56,10.77,52.83,76.83,200.21,20.51
16701,22.19,1006.96,52.75,52.90,0.05,-0.08,1.16,4.39,-0.22,10.94,52.82,76.84,200.56,21.00
16733,22.19,1006.96,52.75,52.87,0.04,-0.07,1.16,4.79,-0.36,11.02,52.82,76.85,200.91,21.48
16764,22.19,1006.98,52.56,52.81,0.04,-0.07,1.16,4.91,-1.18,11.11,52.82,76.84,201.26,21.00
16796,22.19,1006.98,52.56,52.76,0.04,-0.08,1.16,4.54,-0.91,11.08,52.81,76.83,201.61,21.00
16830,22.19,1006.98,52.56,52.72,0.04,-0.08,1.16,4.79,-0.96,11.00,52.82,76.82,201.98,21.00
16861,22.19,1006.97,52.60,52.69,0.04,-0.07,1.17,4.65,-0.80,10.97,52.82,76.82,202.32,21.00
16892,22.19,1006.97,52.60,52.68,0.04,-0.08,1.15,4.65,-0.47,10.88,52.81,76.83,202.66,19.53
16924,22.19,1006.97,52.60,52.66,0.04,-0.08,1.16,4.63,-0.12,11.00,52.80,76.85,203.01,21.00
16956,22.19,1006.98,52.55,52.64,0.04,-0.08,1.16,4.57,-0.53,11.05,52.79,76.85,203.37,20.51
16987,22.19,1006.98,52.55,52.62,0.04,-0.08,1.16,4.76,-1.03,11.03,52.79,76.84,203.72,21.00
17021,22.19,1006.98,52.55,52.60,0.05,-0.07,1.16,4.86,-0.74,10.89,52.81,76.83,204.08,21.00
17053,22.19,1006.98,52.56,52.60,0.05,-0.07,1.15,4.85,-0.96,11.03,52.82,76.82,204.43,21.00
17085,22.19,1006.98,52.56,52.59,0.04,-0.07,1.17,4.69,-1.02,10.94,52.82,76.81,204.78,21.00
17117,22.19,1006.98,52.56,52.58,0.04,-0.08,1.16,4.53,-0.77,11.00,52.82,76.81,205.14,20.51
17148,22.19,1006.97,52.64,52.60,0.04,-0.08,1.17,4.45,-0.57,10.91,52.80,76.81,205.47,20.51
17182,22.19,1006.97,52.64,52.61,0.04,-0.08,1.16,4.62,-0.59,11.20,52.81,76.82,205.85,20.51
17214,22.19,1006.97,52.64,52.61,0.05,-0.08,1.16,4.63,-0.74,10.86,52.80,76.81,206.20,19.53
17245,22.19,1007.00,52.41,52.57,0.04,-0.08,1.15,4.66,-0.28,10.83,52.80,76.82,206.54,20.51
17276,22.19,1007.00,52.41,52.54,0.04,-0.08,1.16,4.85,-0.73,11.20,52.80,76.83,206.89,19.53
17308,22.19,1007.00,52.41,52.52,0.04,-0.07,1.16,4.74,-1.23,11.15,52.81,76.81,207.24,19.53
17340,22.19,1006.99,52.43,52.50,0.04,-0.07,1.17,4.63,-0.92,10.96,52.81,76.81,207.59,21.00
17373,22.19,1006.99,52.43,52.49,0.04,-0.08,1.16,4.63,-0.77,11.08,52.81,76.81,207.96,20.02
17404,22.19,1006.99,52.43,52.48,0.04,-0.08,1.16,4.71,-0.56,11.09,52.80,76.82,208.30,21.00
17436,22.19,1007.02,52.21,52.42,0.04,-0.08,1.15,4.74,-0.24,11.02,52.80,76.83,208.65,21.00
17468,22.19,1007.02,52.21,52.38,0.04,-0.08,1.16,4.51,-0.33,10.70,52.79,76.85,209.00,20.51
17499,22.19,1007.02,52.21,52.35,0.04,-0.08,1.16,4.56,-0.22,10.82,52.78,76.87,209.34,20.02
17531,22.19,1007.02,52.19,52.31,0.06,-0.08,1.15,4.74,-0.53,11.20,52.78,76.85,209.69,20.51
17565,22.19,1007.02,52.19,52.29,0.03,-0.07,1.16,4.56,-0.54,10.99,52.79,76.87,210.06,20.02
17597,22.19,1007.02,52.19,52.27,0.04,-0.07,1.15,4.89,-0.44,11.23,52.80,76.87,210.42,20.51
17629,22.19,1007.04,52.08,52.23,0.05,-0.07,1.16,4.69,-1.29,11.11,52.80,76.85,210.78,21.00
17660,22.19,1007.04,52.08,52.20,0.03,-0.08,1.16,4.60,-0.82,11.03,52.79,76.85,211.12,20.51
17692,22.19,1007.04,52.08,52.18,0.04,-0.08,1.15,4.71,-0.73,11.03,52.79,76.85,211.47,21.00
17726,22.19,1007.03,52.10,52.16,0.04,-0.07,1.15,4.63,-0.96,11.08,52.80,76.84,211.85,21.00
17757,22.19,1007.03,52.10,52.15,0.04,-0.08,1.17,4.69,-0.51,10.96,52.79,76.85,212.19,20.51
17788,22.19,1007.03,52.10,52.14,0.04,-0.08,1.17,4.57,-0.18,10.74,52.79,76.87,212.52,20.02
17820,22.19,1007.07,51.82,52.07,0.04,-0.08,1.16,4.71,-0.63,10.91,52.79,76.88,212.87,19.53
17852,22.19,1007.07,51.82,52.02,0.04,-0.07,1.16,4.82,-0.85,11.09,52.79,76.87,213.23,21.48
17883,22.19,1007.07,51.82,51.98,0.04,-0.07,1.16,4.63,-0.82,10.93,52.79,76.87,213.58,20.51
17917,22.19,1007.05,51.95,51.98,0.04,-0.07,1.15,4.74,-0.77,11.11,52.80,76.87,213.94,20.02
17949,22.19,1007.05,51.95,51.97,0.04,-0.07,1.17,4.74,-1.08,11.14,52.81,76.86,214.30,20.51
17981,22.19,1007.05,51.95,51.97,0.04,-0.07,1.16,4.60,-0.96,10.97,52.81,76.85,214.65,20.51
18013,22.19,1007.03,52.10,51.99,0.04,-0.08,1.16,4.63,-0.76,11.14,52.81,76.85,215.01,20.51
18044,22.19,1007.03,52.10,52.01,0.05,-0.08,1.16,4.76,-0.27,10.93,52.80,76.86,215.35,20.51
18078,22.19,1007.03,52.10,52.03,0.05,-0.07,1.16,4.74,-1.08,11.00,52.82,76.84,215.72,20.51
18110,22.19,1007.07,51.77,51.98,0.04,-0.07,1.16,4.68,-0.76,11.06,52.82,76.84,216.07,20.51
18141,22.19,1007.07,51.77,51.94,0.05,-0.07,1.16,4.76,-0.38,11.05,52.82,76.85,216.42,20.51
18172,22.19,1007.07,51.77,51.90,0.05,-0.08,1.15,4.69,-0.82,11.11,52.82,76.84,216.76,21.00
18204,22.19,1007.08,51.70,51.86,0.04,-0.08,1.16,4.77,-1.15,11.06,52.82,76.82,217.11,21.00
18236,22.19,1007.08,51.70,51.83,0.04,-0.08,1.16,4.72,-1.05,11.02,52.82,76.81,217.47,21.00
18269,22.19,1007.08,51.70,51.80,0.04,-0.08,1.17,4.80,-1.14,11.03,52.82,76.79,217.83,21.00
18300,22.19,1007.09,51.61,51.76,0.04,-0.07,1.15,4.72,-0.79,11.11,52.82,76.80,218.18,21.00
18332,22.19,1007.09,51.61,51.73,0.04,-0.08,1.16,4.59,-0.67,10.96,52.82,76.80,218.53,21.48
18364,22.19,1007.09,51.61,51.71,0.04,-0.08,1.16,4.62,-0.27,10.94,52.81,76.81,218.88,21.00
18395,22.19,1007.05,52.06,51.78,0.04,-0.08,1.15,4.72,-0.31,10.99,52.81,76.82,219.23,21.00
18427,22.19,1007.04,52.06,51.83,0.03,-0.08,1.16,4.71,-0.48,10.85,52.81,76.84,219.56,20.51
18461,22.19,1007.04,52.06,51.88,0.04,-0.08,1.16,4.85,-0.27,10.96,52.82,76.85,219.94,21.00
18493,22.19,1007.08,51.67,51.84,0.05,-0.08,1.15,4.62,-0.21,10.86,52.81,76.87,220.28,20.51
18525,22.19,1007.08,51.67,51.80,0.05,-0.08,1.16,4.65,-0.33,10.86,52.81,76.87,220.63,20.51
18556,22.19,1007.08,51.67,51.78,0.04,-0.08,1.16,4.83,-0.73,11.00,52.81,76.88,220.97,21.00
18588,22.19,1007.08,51.65,51.75,0.04,-0.08,1.16,4.88,-0.77,11.11,52.81,76.87,221.33,20.51
18622,22.19,1007.08,51.69,51.74,0.04,-0.08,1.15,4.69,-0.36,10.91,52.82,76.88,221.70,20.51
18653,22.19,1007.08,51.69,51.73,0.05,-0.08,1.16,4.82,-1.06,11.15,52.82,76.86,222.05,21.00
18684,22.19,1007.08,51.69,51.72,0.03,-0.07,1.15,4.76,-1.00,11.14,52.82,76.86,222.39,21.00
18716,22.19,1007.09,51.59,51.69,0.04,-0.08,1.16,4.65,-0.62,11.08,52.81,76.87,222.75,21.00
18748,22.19,1007.09,51.59,51.67,0.04,-0.08,1.16,4.68,-0.47,10.97,52.81,76.87,223.10,21.00
18779,22.19,1007.09,51.59,51.65,0.04,-0.08,1.16,4.72,-0.15,10.96,52.81,76.89,223.45,21.00
18813,22.19,1007.10,51.54,51.63,0.04,-0.08,1.16,4.56,-0.47,11.20,52.81,76.89,223.82,21.00
18845,22.19,1007.10,51.54,51.61,0.04,-0.08,1.16,4.63,-0.21,10.89,52.81,76.91,224.16,20.51
18877,22.19,1007.10,51.54,51.60,0.04,-0.08,1.16,4.91,-0.18,10.97,52.81,76.92,224.52,21.00
18909,22.19,1007.11,51.42,51.56,0.05,-0.08,1.16,4.69,-0.71,11.09,52.81,76.92,224.87,21.00
18940,22.19,1007.11,51.42,51.54,0.05,-0.07,1.16,4.91,-0.96,11.05,52.82,76.90,225.21,21.48
18972,22.19,1007.11,51.42,51.51,0.04,-0.08,1.16,4.89,-0.91,11.08,52.83,76.89,225.57,21.00
19006,22.19,1007.12,51.41,51.49,0.04,-0.08,1.16,4.69,-0.56,11.09,52.83,76.89,225.95,21.00
19037,22.19,1007.12,51.41,51.48,0.04,-0.08,1.16,4.66,-0.71,11.05,52.83,76.89,226.29,20.51
19068,22.19,1007.12,51.41,51.46,0.04,-0.07,1.16,4.60,-0.39,11.06,52.83,76.90,226.63,21.00
19100,22.19,1007.14,51.24,51.42,0.04,-0.07,1.16,4.60,-0.19,10.86,52.83,76.91,226.98,21.00
19132,22.19,1007.14,51.24,51.38,0.04,-0.07,1.16,4.51,-0.22,10.89,52.82,76.93,227.33,21.00
19165,22.19,1007.14,51.24,51.35,0.04,-0.08,1.16,4.68,-0.60,10.82,52.83,76.93,227.68,20.51
19196,22.19,1007.12,51.36,51.36,0.05,-0.08,1.16,4.60,-0.44,10.89,52.82,76.93,228.02,21.00
19228,22.19,1007.12,51.36,51.36,0.05,-0.08,1.16,4.50,-0.24,10.93,52.81,76.94,228.37,21.00
19260,22.19,1007.12,51.36,51.36,0.04,-0.08,1.16,4.77,-0.39,10.99,52.81,76.95,228.72,21.00
19291,22.19,1007.14,51.23,51.33,0.04,-0.08,1.16,4.74,-0.99,11.22,52.81,76.94,229.08,21.48
19323,22.19,1007.14,51.23,51.31,0.04,-0.08,1.17,4.86,-1.12,11.12,52.81,76.93,229.43,21.48
19357,22.19,1007.14,51.23,51.29,0.04,-0.07,1.15,4.82,-1.08,11.06,52.83,76.91,229.80,20.51
19389,22.20,1007.16,51.07,51.25,0.04,-0.08,1.16,4.74,-1.08,11.12,52.83,76.90,230.16,21.00
19421,22.20,1007.16,51.07,51.21,0.04,-0.07,1.15,4.56,-0.99,11.08,52.83,76.89,230.51,21.00
19452,22.20,1007.16,51.07,51.18,0.04,-0.08,1.16,4.57,-0.71,10.93,52.82,76.89,230.85,21.00
19484,22.20,1007.15,51.14,51.17,0.04,-0.08,1.16,4.59,-0.34,10.85,52.81,76.90,231.20,21.00
19518,22.20,1007.15,51.14,51.17,0.05,-0.07,1.16,4.57,-0.83,11.05,52.82,76.89,231.57,21.00
19549,22.20,1007.15,51.14,51.16,0.04,-0.08,1.16,4.54,-0.25,10.96,52.81,76.91,231.91,21.48
19580,22.19,1007.14,51.18,51.16,0.04,-0.08,1.15,4.80,-0.22,10.89,52.80,76.92,232.25,21.00
19612,22.19,1007.14,51.18,51.17,0.04,-0.07,1.16,4.74,-1.03,11.02,52.81,76.91,232.60,21.00
19644,22.19,1007.14,51.18,51.17,0.04,-0.08,1.16,4.79,-1.03,11.02,52.81,76.89,232.96,20.51
19675,22.19,1007.20,50.73,51.08,0.03,-0.08,1.16,4.57,-0.68,10.97,52.81,76.90,233.31,21.00
19709,22.19,1007.20,50.73,51.01,0.04,-0.08,1.16,4.85,-1.08,11.09,52.82,76.89,233.67,20.02
19741,22.19,1007.20,50.73,50.96,0.04,-0.07,1.16,4.72,-1.11,11.08,52.82,76.87,234.03,21.48
19773,22.19,1007.18,50.89,50.94,0.04,-0.08,1.16,4.72,-0.94,10.97,52.82,76.86,234.38,21.48
19805,22.19,1007.18,50.89,50.93,0.04,-0.08,1.16,4.63,-0.79,11.09,52.82,76.86,234.73,21.00
19836,22.19,1007.18,50.89,50.92,0.04,-0.08,1.16,4.63,-0.47,10.91,52.81,76.87,235.07,20.51
19868,22.19,1007.17,50.92,50.92,0.04,-0.08,1.16,4.63,-0.34,10.93,52.81,76.88,235.42,20.02
19902,22.19,1007.17,50.92,50.92,0.04,-0.07,1.16,4.71,-0.68,11.02,52.82,76.88,235.80,21.00
19933,22.19,1007.17,50.92,50.92,0.05,-0.08,1.15,4.57,-0.42,10.99,52.81,76.88,236.14,20.51
19964,22.19,1007.19,50.81,50.90,0.04,-0.07,1.17,4.77,-0.73,10.99,52.81,76.88,236.48,21.00
19996,22.19,1007.19,50.81,50.88,0.04,-0.07,1.16,4.69,-1.15,11.06,52.81,76.86,236.83,20.51
20028,22.19,1007.19,50.81,50.87,0.04,-0.07,1.15,4.68,-1.08,11.06,52.81,76.85,237.19,21.00
20061,22.19,1007.18,50.84,50.86,0.04,-0.07,1.15,4.88,-1.18,11.05,52.83,76.84,237.55,20.51
20092,22.19,1007.18,50.84,50.86,0.04,-0.07,1.16,4.66,-0.99,11.17,52.82,76.83,237.90,20.51
20124,22.19,1007.18,50.84,50.85,0.04,-0.07,1.16,4.50,-0.59,10.93,52.82,76.83,238.25,21.00
20156,22.19,1007.19,50.79,50.84,0.04,-0.08,1.16,4.69,-0.50,10.91,52.82,76.84,238.60,20.51
20187,22.19,1007.19,50.79,50.83,0.05,-0.08,1.15,4.54,-0.33,11.00,52.82,76.84,238.95,21.00
20219,22.19,1007.19,50.79,50.82,0.04,-0.07,1.16,4.68,-0.22,10.97,52.81,76.86,239.29,20.51
20253,22.19,1007.21,50.66,50.79,0.04,-0.07,1.16,4.53,-0.42,10.85,52.82,76.87,239.66,20.51
20285,22.19,1007.21,50.66,50.76,0.04,-0.08,1.16,4.60,-0.30,10.77,52.82,76.88,240.00,20.02
20317,22.19,1007.21,50.66,50.74,0.05,-0.08,1.16,4.68,-0.16,10.89,52.82,76.89,240.35,20.51
20348,22.19,1007.24,50.34,50.66,0.04,-0.08,1.17,4.72,-0.44,11.08,52.81,76.90,240.69,20.51
20380,22.19,1007.24,50.34,50.60,0.04,-0.07,1.16,4.76,-0.83,11.00,52.82,76.89,241.05,20.51
20412,22.19,1007.24,50.34,50.55,0.05,-0.07,1.17,4.72,-1.11,11.22,52.82,76.87,241.40,21.00
20445,22.19,1007.22,50.57,50.55,0.05,-0.08,1.15,4.80,-0.85,11.09,52.82,76.86,241.77,21.00
20476,22.19,1007.22,50.57,50.56,0.04,-0.08,1.16,4.92,-1.17,11.03,52.82,76.85,242.11,21.00
20508,22.19,1007.22,50.57,50.56,0.04,-0.07,1.16,4.63,-0.71,11.02,52.82,76.85,242.46,20.51
20540,22.19,1007.23,50.47,50.54,0.04,-0.08,1.16,4.57,-0.59,10.93,52.81,76.86,242.81,21.48
20571,22.19,1007.23,50.47,50.53,0.04,-0.08,1.15,4.56,-0.38,10.96,52.81,76.87,243.17,21.00
20605,22.19,1007.23,50.47,50.52,0.04,-0.08,1.15,4.66,-0.68,10.93,52.81,76.87,243.53,21.48
20637,22.19,1007.22,50.51,50.51,0.04,-0.07,1.17,4.56,-0.68,10.96,52.81,76.87,243.88,21.00
20669,22.19,1007.22,50.51,50.51,0.04,-0.08,1.15,4.57,-0.53,10.83,52.80,76.88,244.22,20.51
20701,22.19,1007.22,50.51,50.51,0.04,-0.08,1.15,4.51,-0.30,11.17,52.79,76.89,244.58,20.51
20732,22.19,1007.24,50.34,50.48,0.05,-0.07,1.16,4.66,-0.31,10.91,52.79,76.89,244.92,21.00
20764,22.19,1007.24,50.34,50.45,0.04,-0.08,1.15,4.80,-0.96,11.08,52.79,76.89,245.27,20.51
20798,22.19,1007.24,50.34,50.43,0.04,-0.07,1.16,4.53,-0.33,10.91,52.80,76.90,245.64,20.51
20829,22.19,1007.25,50.32,50.40,0.04,-0.07,1.16,4.74,-1.06,11.22,52.80,76.89,245.99,21.00
20860,22.19,1007.25,50.32,50.39,0.04,-0.08,1.15,4.66,-1.14,11.15,52.79,76.88,246.34,20.51
20892,22.19,1007.25,50.32,50.37,0.05,-0.07,1.15,4.65,-0.85,10.83,52.79,76.87,246.68,20.51
20924,22.19,1007.25,50.27,50.35,0.04,-0.08,1.15,4.63,-0.77,10.88,52.78,76.87,247.03,21.00
20957,22.19,1007.25,50.27,50.34,0.04,-0.07,1.15,4.62,-0.99,11.06,52.79,76.86,247.40,21.48
20988,22.19,1007.25,50.27,50.32,0.04,-0.08,1.15,4.50,-0.56,11.18,52.78,76.86,247.74,21.00
21020,22.19,1007.26,50.18,50.30,0.04,-0.08,1.16,4.76,-0.34,10.93,52.78,76.87,248.09,20.51
21052,22.19,1007.26,50.18,50.27,0.05,-0.07,1.16,4.63,-0.22,10.85,52.78,76.88,248.44,21.00
21083,22.19,1007.26,50.18,50.25,0.04,-0.08,1.15,4.63,-0.31,10.99,52.78,76.89,248.79,20.51
21115,22.19,1007.25,50.31,50.27,0.05,-0.07,1.15,4.76,-0.85,10.93,52.78,76.88,249.13,20.51
21149,22.19,1007.25,50.31,50.28,0.04,-0.08,1.16,4.65,-0.15,10.88,52.78,76.90,249.50,21.00
21181,22.19,1007.25,50.31,50.28,0.04,-0.07,1.15,4.53,-0.47,10.93,52.78,76.90,249.85,21.00
21213,22.19,1007.27,50.11,50.25,0.04,-0.07,1.16,4.72,-0.94,11.12,52.78,76.90,250.21,20.51
21244,22.19,1007.27,50.11,50.22,0.04,-0.07,1.16,4.69,-1.29,11.12,52.78,76.87,250.55,21.00
21276,22.19,1007.27,50.11,50.20,0.04,-0.08,1.15,4.62,-1.08,10.97,52.78,76.86,250.90,20.51
21308,22.19,1007.28,50.03,50.17,0.05,-0.08,1.16,4.69,-0.80,11.06,52.78,76.85,251.26,20.02
21341,22.19,1007.28,50.03,50.14,0.04,-0.07,1.16,4.65,-0.91,11.14,52.78,76.85,251.62,20.51
21372,22.19,1007.28,50.03,50.12,0.04,-0.07,1.15,4.65,-1.06,11.00,52.78,76.84,251.97,21.00
21404,22.20,1007.30,49.84,50.06,0.04,-0.08,1.16,4.69,-0.63,11.02,52.78,76.84,252.32,21.48
21436,22.20,1007.30,49.84,50.02,0.04,-0.08,1.16,4.74,-0.22,11.09,52.78,76.85,252.67,20.51
21467,22.20,1007.30,49.84,49.98,0.04,-0.08,1.16,4.63,-0.33,10.73,52.78,76.86,253.02,21.00
21501,22.20,1007.31,49.75,49.94,0.04,-0.08,1.16,4.71,-0.59,10.94,52.79,76.87,253.38,21.00
21533,22.20,1007.31,49.75,49.90,0.04,-0.08,1.15,4.50,-0.28,10.86,52.78,76.88,253.72,20.51
21565,22.20,1007.31,49.75,49.87,0.04,-0.07,1.16,4.69,-0.38,11.05,52.78,76.89,254.08,21.00
21597,22.19,1007.29,49.92,49.88,0.05,-0.07,1.15,4.85,-1.02,11.14,52.79,76.87,254.43,20.51
21628,22.19,1007.29,49.92,49.89,0.03,-0.08,1.16,4.82,-1.12,11.02,52.79,76.87,254.78,20.51
21660,22.19,1007.29,49.92,49.89,0.04,-0.07,1.16,4.86,-0.85,11.52,52.80,76.86,255.14,20.51
21694,22.20,1007.30,49.89,49.89,0.04,-0.07,1.15,4.72,-0.86,11.09,52.82,76.85,255.52,21.00
21725,22.20,1007.30,49.89,49.89,0.03,-0.07,1.17,4.68,-1.02,11.32,52.81,76.85,255.87,20.51
21756,22.20,1007.30,49.89,49.89,0.04,-0.08,1.16,4.86,-0.54,10.97,52.81,76.86,256.21,21.00
21788,22.19,1007.27,50.16,49.94,0.04,-0.08,1.15,4.77,-0.18,11.17,52.81,76.87,256.57,20.51
21820,22.19,1007.27,50.16,49.99,0.05,-0.08,1.16,4.48,0.17,11.05,52.80,76.90,256.92,21.00
21851,22.19,1007.27,50.16,50.02,0.05,-0.08,1.15,4.59,-0.45,10.83,52.80,76.90,257.27,21.00
21885,22.20,1007.24,50.33,50.08,0.04,-0.08,1.16,4.51,-0.25,10.91,52.79,76.91,257.63,20.51
21917,22.20,1007.24,50.33,50.13,0.04,-0.07,1.16,4.79,-0.28,11.11,52.80,76.93,257.99,21.48
21949,22.20,1007.24,50.33,50.17,0.04,-0.08,1.16,4.97,-0.33,11.18,52.81,76.94,258.34,21.00
21981,22.20,1007.20,50.73,50.28,0.04,-0.08,1.16,4.63,-0.83,11.09,52.80,76.93,258.70,21.00
22012,22.20,1007.20,50.73,50.37,0.05,-0.07,1.15,4.82,-1.21,11.12,52.80,76.91,259.04,20.02
22046,22.20,1007.20,50.73,50.44,0.04,-0.08,1.15,4.65,-0.44,11.03,52.81,76.92,259.42,21.48
22078,22.20,1007.13,51.26,50.61,0.04,-0.07,1.16,4.85,-0.86,11.17,52.82,76.91,259.78,20.51
22109,22.20,1007.13,51.26,50.74,0.04,-0.07,1.17,4.82,-0.67,11.40,52.82,76.92,260.13,20.02
22140,22.20,1007.13,51.26,50.84,0.05,-0.07,1.16,4.80,-0.39,11.08,52.82,76.92,260.47,20.51
22172,22.20,1007.10,51.58,50.99,0.05,-0.07,1.15,4.50,-0.34,10.89,52.82,76.93,260.82,20.51
22204,22.20,1007.10,51.58,51.11,0.05,-0.07,1.16,4.68,-0.38,10.83,52.82,76.93,261.17,21.00
22237,22.20,1007.10,51.58,51.20,0.04,-0.08,1.16,4.65,-0.15,10.85,52.82,76.95,261.53,20.51
22268,22.20,1007.04,52.03,51.37,0.04,-0.07,1.16,4.83,-0.19,11.12,52.82,76.97,261.87,21.00
22300,22.20,1007.04,52.03,51.50,0.04,-0.08,1.15,4.92,-0.45,11.14,52.83,76.97,262.23,21.00
22332,22.20,1007.04,52.03,51.61,0.04,-0.08,1.16,4.77,-0.80,11.03,52.83,76.97,262.58,20.02
22363,22.20,1006.99,52.50,51.78,0.04,-0.07,1.15,4.71,-1.28,11.05,52.83,76.95,262.93,21.00
22395,22.20,1006.99,52.50,51.93,0.04,-0.08,1.15,4.57,-0.88,10.86,52.82,76.94,263.27,21.48
22429,22.20,1006.99,52.50,52.04,0.04,-0.07,1.16,4.88,-1.03,11.28,52.84,76.93,263.65,20.51
22461,22.19,1006.92,53.07,52.25,0.04,-0.07,1.16,4.83,-0.74,11.18,52.85,76.93,264.01,20.51
22493,22.19,1006.92,53.07,52.41,0.05,-0.07,1.15,4.56,-0.65,10.99,52.85,76.92,264.36,20.51
22524,22.19,1006.92,53.07,52.54,0.04,-0.07,1.15,4.66,-0.77,10.89,52.85,76.92,264.70,20.51
22556,22.19,1006.87,53.49,52.73,0.04,-0.07,1.15,4.57,-0.33,10.80,52.85,76.93,265.05,21.48
22590,22.19,1006.87,53.49,52.88,0.05,-0.08,1.16,4.76,-0.74,11.40,52.86,76.92,265.43,21.00
22621,22.19,1006.87,53.49,53.01,0.04,-0.08,1.16,4.85,0.01,11.06,52.86,76.94,265.78,21.48
22652,22.19,1006.78,54.23,53.25,0.04,-0.08,1.16,4.76,-0.01,10.91,52.85,76.96,266.12,21.48
22684,22.19,1006.78,54.23,53.45,0.04,-0.08,1.17,4.80,-1.09,11.11,52.85,76.95,266.47,20.51
22716,22.19,1006.78,54.23,53.60,0.04,-0.08,1.16,4.77,-1.18,10.86,52.85,76.93,266.82,20.51
22747,22.19,1006.78,54.73,53.83,0.04,-0.06,1.15,4.66,-1.03,11.12,52.86,76.91,267.17,21.00
22781,22.19,1006.72,54.73,54.01,0.04,-0.07,1.16,4.94,-0.77,11.23,52.88,76.91,267.55,21.00
22813,22.19,1006.72,54.73,54.15,0.05,-0.07,1.15,4.51,-0.62,11.02,52.87,76.91,267.90,21.00
22845,22.19,1006.70,54.90,54.30,0.04,-0.08,1.16,4.57,-0.89,10.77,52.87,76.90,268.24,20.02
22877,22.19,1006.70,54.90,54.42,0.04,-0.08,1.16,4.57,-0.24,10.76,52.86,76.92,268.59,21.00
22908,22.19,1006.70,54.90,54.52,0.04,-0.08,1.16,4.43,-0.19,10.91,52.85,76.93,268.93,21.00
23041,22.19,1006.57,55.97,54.81,0.03,-0.07,1.16,4.85,-1.11,11.44,53.34,76.81,270.45,21.00
23073,22.19,1006.57,55.97,55.04,0.04,-0.08,1.16,4.71,-0.53,11.14,53.32,76.82,270.80,21.00
23105,22.19,1006.57,55.97,55.22,0.04,-0.08,1.15,4.54,-0.57,10.93,53.31,76.82,271.15,21.00
23136,22.19,1006.52,56.36,55.45,0.04,-0.07,1.15,4.68,-0.68,10.86,53.30,76.82,271.49,20.51
23167,22.20,1006.52,56.36,55.63,0.04,-0.07,1.16,4.74,-1.21,11.03,53.29,76.81,271.83,20.51
23199,22.20,1006.52,56.36,55.78,0.04,-0.07,1.15,4.85,-1.15,11.34,53.29,76.80,272.20,21.00
23233,22.20,1006.48,56.75,55.97,0.04,-0.08,1.15,4.83,-0.34,11.35,53.29,76.82,272.58,21.48
23264,22.20,1006.48,56.75,56.13,0.05,-0.07,1.15,4.66,-0.97,11.05,53.28,76.81,272.92,20.51
23295,22.20,1006.48,56.75,56.25,0.04,-0.08,1.15,4.66,-1.23,10.88,53.26,76.79,273.26,20.51
23327,22.20,1006.48,56.75,56.35,0.04,-0.08,1.15,4.40,-0.74,10.86,53.24,76.80,273.61,21.48
23359,22.20,1006.45,57.01,56.49,0.04,-0.07,1.16,4.50,-0.33,11.06,53.23,76.81,273.96,20.51
23390,22.20,1006.45,57.01,56.59,0.04,-0.07,1.16,4.94,-0.85,11.43,53.24,76.81,274.32,21.00
23429,22.20,1006.39,57.45,56.76,0.04,-0.08,1.16,4.63,-0.54,10.73,53.26,76.82,274.75,20.51
23461,22.20,1006.39,57.45,56.90,0.04,-0.07,1.16,4.80,-0.41,11.05,53.25,76.83,275.09,21.00
23493,22.20,1006.39,57.45,57.01,0.04,-0.07,1.16,4.83,-0.04,11.17,53.25,76.85,275.45,21.48
23524,22.20,1006.32,58.07,57.22,0.04,-0.07,1.15,4.92,-0.88,11.11,53.25,76.84,275.79,20.02
23555,22.20,1006.32,58.07,57.39,-0.01,-0.08,1.19,4.48,-0.74,10.89,53.22,76.89,276.13,20.02
23589,22.20,1006.32,58.07,57.53,0.08,-0.08,1.14,5.09,-0.60,11.31,53.23,76.85,276.51,21.48
23621,22.20,1006.28,58.36,57.70,0.03,-0.07,1.15,4.76,-1.20,11.25,53.23,76.85,276.87,20.51
23652,22.20,1006.28,58.36,57.83,0.05,-0.07,1.15,4.86,-0.36,11.03,53.22,76.85,277.21,20.51
23683,22.20,1006.28,58.36,57.94,0.04,-0.08,1.15,4.53,-0.21,10.80,53.20,76.86,277.55,19.53
23715,22.20,1006.28,58.63,58.07,0.04,-0.08,1.17,4.68,-0.19,11.02,53.19,76.88,277.90,21.00
23747,22.20,1006.25,58.63,58.19,0.04,-0.08,1.15,4.76,-1.02,11.22,53.18,76.87,278.26,21.00
23780,22.20,1006.25,58.63,58.27,0.04,-0.08,1.15,4.59,-0.16,10.79,53.17,76.89,278.62,21.00
23811,22.20,1006.25,59.07,58.43,0.04,-0.07,1.16,4.92,-0.53,11.40,53.17,76.90,278.97,20.51
23843,22.20,1006.20,59.07,58.56,0.05,-0.08,1.16,4.94,-0.83,11.40,53.17,76.89,279.33,20.02
23875,22.20,1006.20,59.07,58.66,0.05,-0.08,1.15,4.79,-0.82,11.11,53.16,76.87,279.69,21.00
23906,22.20,1006.20,59.07,58.74,0.04,-0.07,1.15,4.42,-0.48,10.86,53.15,76.87,280.03,21.00
23937,22.20,1006.14,59.61,58.91,0.04,-0.08,1.15,4.68,-0.51,10.88,53.14,76.88,280.36,20.51
23971,22.20,1006.14,59.61,59.05,0.04,-0.07,1.16,4.71,-0.39,11.06,53.14,76.89,280.74,20.51
24003,22.20,1006.14,59.61,59.16,0.04,-0.08,1.16,4.69,-0.02,11.29,53.14,76.91,281.10,20.02
24034,22.20,1006.11,59.85,59.30,0.05,-0.07,1.16,4.69,-0.47,11.03,53.13,76.91,281.44,21.00
24065,22.20,1006.11,59.85,59.41,0.04,-0.08,1.15,4.59,-1.09,11.09,53.12,76.89,281.79,21.00
24097,22.20,1006.11,59.85,59.50,0.04,-0.07,1.15,4.71,-1.11,10.93,53.11,76.88,282.14,21.00
24131,22.20,1006.03,60.50,59.70,0.04,-0.07,1.16,4.80,-0.82,11.31,53.13,76.88,282.52,21.48
24162,22.20,1006.03,60.50,59.86,0.04,-0.08,1.16,4.71,-0.56,11.28,53.11,76.89,282.87,21.00
24193,22.20,1006.03,60.50,59.99,0.05,-0.07,1.16,4.60,-0.25,10.82,53.10,76.89,283.21,21.00
24225,22.20,1005.99,60.81,60.15,0.05,-0.08,1.15,4.63,-0.53,10.97,53.09,76.89,283.56,20.51
24257,22.20,1005.99,60.81,60.28,0.04,-0.08,1.16,4.62,-0.45,10.80,53.09,76.90,283.90,20.51
24288,22.20,1005.99,60.81,60.39,0.04,-0.07,1.16,4.80,-1.21,11.08,53.08,76.88,284.25,21.00
24321,22.19,1005.94,61.29,60.57,0.03,-0.08,1.15,4.74,-0.19,11.17,53.08,76.91,284.62,20.02
24353,22.19,1005.94,61.29,60.71,0.05,-0.07,1.16,4.77,-0.27,11.14,53.08,76.91,284.97,21.48
24385,22.19,1005.94,61.29,60.83,0.05,-0.07,1.15,4.95,-1.14,10.93,53.09,76.89,285.32,20.51
24416,22.20,1005.90,61.62,60.99,0.05,-0.07,1.16,4.45,-1.08,10.91,53.07,76.87,285.66,21.00
24484,22.20,1005.90,61.62,61.12,0.05,-0.08,1.14,4.74,-0.21,11.02,53.24,76.87,286.41,21.00
24518,22.20,1005.85,61.98,61.29,0.04,-0.07,1.16,4.63,-0.50,10.82,53.24,76.87,286.78,21.48
24549,22.20,1005.85,61.98,61.43,0.03,-0.07,1.16,4.83,-0.73,10.88,53.23,76.88,287.11,20.51
24580,22.20,1005.85,61.98,61.54,0.04,-0.08,1.16,5.05,-0.96,11.15,53.23,76.88,287.46,21.00
24612,22.20,1005.79,62.52,61.74,0.03,-0.08,1.16,5.00,-0.79,11.22,53.23,76.88,287.82,21.00
24644,22.20,1005.79,62.52,61.89,0.05,-0.07,1.15,4.74,-0.80,11.14,53.23,76.87,288.17,21.00
24675,22.20,1005.79,62.52,62.02,0.05,-0.07,1.15,4.50,-0.38,10.82,53.21,76.87,288.51,20.51
24708,22.20,1005.74,62.92,62.20,0.04,-0.08,1.15,4.62,-1.02,11.08,53.21,76.87,288.88,20.02
24740,22.20,1005.74,62.92,62.34,0.04,-0.07,1.16,4.74,-1.03,11.29,53.20,76.86,289.24,21.00
24772,22.20,1005.74,62.92,62.46,0.04,-0.08,1.16,4.66,-0.33,11.11,53.19,76.87,289.59,21.00
24803,22.20,1005.70,63.29,62.63,0.05,-0.07,1.15,4.82,0.02,10.97,53.18,76.89,289.93,20.51
24834,22.20,1005.70,63.29,62.76,0.05,-0.07,1.15,4.63,-0.57,10.88,53.18,76.88,290.27,21.00
24866,22.20,1005.70,63.29,62.87,0.04,-0.07,1.17,4.77,-1.02,10.97,53.17,76.87,290.62,21.00
24900,22.20,1005.64,63.74,63.04,0.04,-0.08,1.16,4.69,-0.24,11.11,53.17,76.89,291.00,21.00
24931,22.20,1005.64,63.74,63.18,0.04,-0.07,1.16,4.86,-0.83,11.26,53.17,76.89,291.35,21.48
24962,22.20,1005.64,63.74,63.29,0.04,-0.07,1.15,4.65,-0.71,11.05,53.16,76.88,291.69,20.51
24994,22.19,1005.63,63.87,63.41,0.05,-0.08,1.15,4.50,-1.02,11.02,53.15,76.87,292.04,20.51
25026,22.19,1005.63,63.87,63.50,0.04,-0.07,1.16,4.53,-0.96,10.64,53.14,76.86,292.38,21.00
25059,22.19,1005.63,63.87,63.57,0.04,-0.07,1.15,4.85,-0.74,11.32,53.15,76.86,292.76,21.48
25090,22.20,1005.57,64.39,63.74,0.04,-0.08,1.16,4.57,-0.36,11.14,53.13,76.87,293.10,21.00
25122,22.20,1005.57,64.39,63.87,0.05,-0.08,1.15,4.51,-0.30,10.88,53.12,76.87,293.45,21.00
25154,22.20,1005.57,64.39,63.97,0.05,-0.07,1.16,4.63,-0.45,10.80,53.11,76.88,293.80,21.00
25185,22.20,1005.51,64.87,64.15,0.04,-0.08,1.16,4.69,-1.06,10.88,53.10,76.87,294.13,20.51
25216,22.20,1005.51,64.87,64.30,0.04,-0.07,1.16,4.79,-1.20,11.28,53.10,76.85,294.48,20.02
25250,22.20,1005.51,64.87,64.41,0.05,-0.07,1.15,4.85,-0.44,11.12,53.11,76.86,294.86,20.51
25282,22.20,1005.47,65.22,64.57,0.05,-0.07,1.15,4.72,-1.09,11.17,53.11,76.83,295.22,20.51
25313,22.20,1005.47,65.22,64.70,0.05,-0.08,1.15,4.60,-0.94,10.85,53.10,76.82,295.55,21.00
25344,22.20,1005.47,65.22,64.81,0.03,-0.07,1.16,4.53,-0.54,10.83,53.08,76.83,295.89,21.48
25376,22.20,1005.43,65.53,64.95,0.05,-0.07,1.15,4.72,-0.30,11.17,53.08,76.84,296.25,20.51
25408,22.20,1005.43,65.53,65.07,0.03,-0.08,1.16,4.68,0.01,11.12,53.08,76.87,296.60,21.00
25441,22.20,1005.43,65.53,65.16,0.04,-0.08,1.15,4.54,-0.22,10.97,53.07,76.88,296.97,20.51
25472,22.20,1005.38,65.92,65.31,0.04,-0.07,1.16,4.74,-0.59,10.91,53.07,76.89,297.30,21.00
25504,22.20,1005.38,65.92,65.43,0.04,-0.07,1.15,4.82,-0.97,10.99,53.07,76.89,297.66,21.00
25536,22.20,1005.38,65.92,65.53,0.03,-0.08,1.15,4.86,-1.02,11.40,53.07,76.89,298.02,21.00
25567,22.20,1005.32,66.41,65.71,0.04,-0.08,1.16,4.74,-0.36,11.15,53.06,76.90,298.37,21.00
25600,22.20,1005.32,66.41,65.85,0.04,-0.07,1.15,4.60,-0.99,11.18,53.06,76.88,298.74,20.51
25632,22.20,1005.32,66.41,65.96,0.03,-0.08,1.16,4.74,-1.06,10.82,53.06,76.88,299.08,21.48
25664,22.20,1005.27,66.89,66.15,0.04,-0.07,1.16,4.57,-0.54,11.03,53.05,76.88,299.43,20.02
25695,22.20,1005.27,66.89,66.30,0.05,-0.07,1.16,4.82,-0.18,11.18,53.05,76.90,299.78,20.51
25726,22.20,1005.27,66.89,66.42,0.04,-0.08,1.16,4.92,-0.36,11.23,53.05,76.91,300.13,21.00
25758,22.20,1005.24,67.11,66.55,0.05,-0.07,1.15,4.72,-0.70,11.06,53.05,76.90,300.48,21.00
25792,22.20,1005.24,67.11,66.67,0.04,-0.08,1.16,4.51,-0.33,10.83,53.05,76.92,300.85,20.51
25823,22.20,1005.24,67.11,66.75,0.04,-0.08,1.15,4.91,-1.00,11.03,53.04,76.91,301.19,21.00
25854,22.20,1005.18,67.64,66.93,0.03,-0.08,1.15,4.83,-1.09,11.23,53.04,76.91,301.54,21.00
25886,22.20,1005.18,67.64,67.08,0.04,-0.07,1.16,4.89,-0.76,11.15,53.04,76.91,301.90,21.00
25918,22.20,1005.18,67.64,67.19,0.06,-0.07,1.15,4.66,-1.00,11.00,53.04,76.88,302.25,21.00
25951,22.20,1005.15,67.86,67.32,0.04,-0.08,1.15,4.74,-1.26,10.89,53.04,76.86,302.61,21.00
25982,22.20,1005.15,67.86,67.43,0.04,-0.07,1.16,4.66,-0.77,11.02,53.04,76.87,302.95,20.51
26014,22.20,1005.15,67.86,67.52,0.04,-0.07,1.16,4.65,-0.62,11.31,53.04,76.87,303.31,21.00
26046,22.20,1005.09,68.41,67.70,0.04,-0.08,1.15,4.50,-0.10,11.03,53.02,76.88,303.67,20.51
26077,22.20,1005.09,68.41,67.84,0.05,-0.07,1.14,4.54,-0.36,10.94,53.01,76.88,304.01,20.51
26108,22.20,1005.09,68.41,67.95,0.04,-0.07,1.16,4.79,-1.14,10.82,53.01,76.87,304.34,20.51
26142,22.20,1005.03,68.91,68.14,0.04,-0.07,1.15,4.74,-0.25,11.09,53.03,76.88,304.72,20.51
26174,22.20,1005.03,68.91,68.30,0.04,-0.07,1.16,4.86,-0.36,11.14,53.03,76.90,305.07,21.00
26205,22.20,1005.03,68.91,68.42,0.05,-0.08,1.16,4.79,-0.51,11.12,53.02,76.90,305.42,21.00
26236,22.20,1004.99,69.24,68.59,0.05,-0.07,1.15,4.51,-0.57,10.88,53.01,76.89,305.76,20.51
26268,22.20,1004.99,69.24,68.72,0.04,-0.08,1.16,4.57,-0.62,10.88,53.00,76.89,306.10,21.48
26300,22.20,1004.99,69.24,68.82,0.04,-0.07,1.16,4.51,-0.50,10.97,53.00,76.90,306.46,21.00
26333,22.20,1004.96,69.48,68.95,0.04,-0.07,1.16,4.88,-0.24,11.28,53.01,76.92,306.83,21.48
26364,22.20,1004.96,69.48,69.06,0.05,-0.07,1.16,4.69,0.01,10.89,53.01,76.93,307.17,20.51
26396,22.20,1004.96,69.48,69.15,0.04,-0.07,1.16,4.57,-0.53,11.02,53.00,76.94,307.52,21.00
26428,22.20,1004.94,69.65,69.25,0.03,-0.07,1.15,4.89,-1.12,11.03,53.01,76.93,307.87,20.51
26459,22.20,1004.94,69.65,69.33,0.04,-0.08,1.16,4.69,-1.12,11.15,53.00,76.92,308.23,21.00
26493,22.20,1004.94,69.65,69.39,0.04,-0.07,1.15,4.82,-0.41,10.99,53.01,76.93,308.59,20.02
26525,22.20,1004.88,70.16,69.55,0.05,-0.07,1.15,4.69,-1.08,11.18,53.01,76.91,308.95,21.00
26557,22.20,1004.88,70.16,69.67,0.04,-0.07,1.16,4.69,-1.02,10.86,53.01,76.90,309.30,21.48
26589,22.20,1004.88,70.16,69.77,0.04,-0.07,1.15,4.60,-0.53,10.86,53.01,76.91,309.64,21.00
26620,22.20,1004.81,70.69,69.95,0.04,-0.07,1.15,4.60,-0.42,11.22,53.00,76.92,309.99,20.51
26652,22.20,1004.81,70.69,70.10,0.04,-0.08,1.16,4.77,0.05,11.05,53.00,76.94,310.35,21.00
26686,22.20,1004.81,70.69,70.22,0.04,-0.07,1.15,4.48,-0.77,10.82,53.00,76.93,310.71,21.00
26717,22.20,1004.77,71.02,70.38,0.03,-0.08,1.15,4.59,-0.62,10.83,52.99,76.95,311.05,20.51
26748,22.20,1004.77,71.02,70.50,0.04,-0.07,1.16,4.76,-0.82,11.20,52.98,76.95,311.40,21.00
26780,22.20,1004.77,71.02,70.61,0.04,-0.07,1.16,5.11,-0.94,11.32,53.00,76.94,311.76,20.51
26812,22.20,1004.71,71.58,70.80,0.04,-0.07,1.15,4.65,-0.76,11.23,53.00,76.94,312.12,21.00
26843,22.20,1004.71,71.58,70.96,0.05,-0.07,1.15,4.60,-1.11,10.99,53.00,76.92,312.47,20.51
26877,22.20,1004.71,71.58,71.08,0.04,-0.07,1.16,4.72,-0.96,11.14,53.00,76.91,312.84,20.51
26909,22.20,1004.66,71.95,71.26,0.04,-0.07,1.15,4.88,-0.96,11.26,53.01,76.90,313.20,20.51
26941,22.20,1004.66,71.95,71.39,0.04,-0.07,1.16,4.62,-0.62,11.17,53.00,76.91,313.55,20.51
26973,22.20,1004.66,71.95,71.50,0.05,-0.07,1.15,4.56,-0.57,10.89,53.00,76.90,313.90,20.51
27004,22.20,1004.66,72.31,71.66,0.04,-0.08,1.15,4.51,-0.68,10.80,52.98,76.91,314.24,21.48
27038,22.20,1004.62,72.31,71.79,0.05,-0.07,1.15,4.71,-0.67,11.20,52.99,76.90,314.62,21.00
27070,22.20,1004.62,72.31,71.90,0.04,-0.07,1.16,4.80,-0.24,11.11,52.99,76.92,314.97,20.51
27101,22.20,1004.62,72.71,72.06,0.05,-0.08,1.15,4.65,-0.08,10.83,52.98,76.93,315.31,21.00
27132,22.20,1004.57,72.71,72.19,0.05,-0.08,1.16,4.77,-1.05,10.93,52.97,76.91,315.65,21.00
27164,22.20,1004.57,72.71,72.29,0.03,-0.07,1.15,4.89,-1.21,10.88,52.98,76.91,316.00,20.02
27196,22.20,1004.57,72.71,72.38,0.04,-0.07,1.15,4.71,-1.11,11.29,52.98,76.90,316.36,21.00
27229,22.20,1004.52,73.14,72.53,0.04,-0.07,1.15,4.66,-0.70,11.32,52.98,76.90,316.73,21.00
27260,22.20,1004.52,73.14,72.65,0.04,-0.07,1.16,4.53,-0.76,10.82,52.97,76.89,317.07,20.02
27292,22.20,1004.52,73.14,72.75,0.04,-0.07,1.15,4.57,-0.85,10.83,52.96,76.89,317.41,20.51
27324,22.20,1004.47,73.57,72.91,0.04,-0.07,1.15,4.60,-0.36,10.73,52.96,76.90,317.76,21.48
27355,22.20,1004.47,73.57,73.04,0.04,-0.07,1.15,4.79,-0.15,11.22,52.97,76.92,318.12,20.51
27389,22.20,1004.47,73.57,73.15,0.05,-0.07,1.16,4.51,-0.51,10.97,52.96,76.92,318.48,21.00
27421,22.20,1004.42,74.02,73.32,0.05,-0.08,1.15,4.63,-0.68,10.89,52.96,76.91,318.83,20.51
27453,22.20,1004.42,74.02,73.46,0.04,-0.08,1.16,4.42,-0.38,10.82,52.94,76.93,319.17,21.00
27485,22.20,1004.42,74.02,73.57,0.04,-0.07,1.15,4.77,-0.18,11.20,52.95,76.94,319.53,21.00
27516,22.20,1004.37,74.44,73.75,0.03,-0.08,1.16,4.83,-0.30,11.20,52.95,76.96,319.88,20.51
27548,22.20,1004.37,74.44,73.89,0.05,-0.07,1.15,4.80,-0.96,10.99,52.95,76.94,320.23,20.51
27582,22.20,1004.37,74.44,74.00,0.03,-0.07,1.16,4.51,-0.44,10.79,52.96,76.96,320.60,21.00
27613,22.20,1004.31,74.95,74.19,0.04,-0.07,1.15,4.77,-1.21,11.17,52.96,76.94,320.94,21.48
27644,22.20,1004.31,74.95,74.34,0.04,-0.07,1.15,4.62,-0.57,11.20,52.95,76.94,321.29,21.00
27676,22.20,1004.31,74.95,74.46,0.04,-0.07,1.15,4.85,-0.16,10.86,52.96,76.96,321.64,21.00
27708,22.20,1004.26,75.36,74.64,0.05,-0.07,1.15,4.57,-0.65,10.85,52.96,76.95,321.99,21.00
27739,22.20,1004.26,75.36,74.78,0.03,-0.07,1.15,4.82,-0.38,10.68,52.96,76.97,322.33,21.00
27773,22.20,1004.26,75.36,74.90,0.04,-0.07,1.15,4.97,-0.54,11.25,52.98,76.96,322.70,21.00
27805,22.20,1004.21,75.74,75.07,0.04,-0.07,1.15,4.62,-0.08,10.85,52.97,76.98,323.05,21.00
27837,22.20,1004.21,75.74,75.20,0.05,-0.07,1.14,4.60,-0.36,10.85,52.97,76.99,323.39,21.00
27869,22.20,1004.21,75.74,75.31,0.03,-0.08,1.16,4.66,-0.28,10.77,52.96,77.01,323.74,21.00
27900,22.20,1004.16,76.16,75.48,0.04,-0.06,1.15,4.72,-0.42,11.17,52.97,77.01,324.08,21.48
27934,22.20,1004.16,76.16,75.61,0.04,-0.07,1.15,4.77,-0.12,11.09,52.98,77.03,324.46,20.51
27966,22.20,1004.16,76.16,75.72,0.05,-0.07,1.16,4.72,-0.36,10.88,52.99,77.03,324.81,21.00
27997,22.20,1004.13,76.45,75.87,0.04,-0.08,1.16,4.83,-1.12,10.96,52.98,77.02,325.15,21.00
28028,22.20,1004.13,76.45,75.98,0.04,-0.07,1.15,4.74,-1.20,10.89,52.98,77.00,325.49,21.48
28060,22.20,1004.13,76.45,76.08,0.03,-0.07,1.15,4.86,-1.03,11.38,52.99,76.99,325.85,20.51
28092,22.20,1004.07,76.92,76.24,0.04,-0.07,1.15,4.60,-0.34,11.03,52.99,77.00,326.20,20.51
28125,22.20,1004.07,76.92,76.38,0.04,-0.08,1.15,4.54,-1.26,11.00,52.98,76.98,326.57,21.00
28156,22.20,1004.07,76.92,76.49,0.04,-0.07,1.15,4.46,-0.86,10.68,52.97,76.97,326.90,21.00
28188,22.20,1004.01,77.45,76.68,0.04,-0.07,1.15,4.80,-0.68,11.05,52.98,76.97,327.25,20.51
28220,22.20,1004.01,77.45,76.83,0.04,-0.08,1.15,4.82,0.08,11.12,52.98,77.00,327.61,20.51
28251,22.20,1004.01,77.45,76.96,0.04,-0.06,1.15,4.57,-0.57,10.99,52.98,77.00,327.96,20.51
28283,22.20,1003.97,77.76,77.12,0.03,-0.07,1.15,4.65,-0.91,10.93,52.98,77.00,328.30,20.51
28317,22.20,1003.97,77.76,77.24,0.04,-0.07,1.15,4.69,-0.42,11.17,52.98,77.01,328.68,20.51
28349,22.20,1003.97,77.76,77.35,0.04,-0.07,1.15,4.86,0.05,11.00,52.99,77.03,329.03,21.00
28381,22.20,1003.95,77.96,77.47,0.05,-0.07,1.16,4.65,-0.47,10.91,52.99,77.03,329.38,21.00
28412,22.20,1003.95,77.96,77.57,0.04,-0.07,1.15,4.79,-1.14,10.94,52.99,77.02,329.72,21.00
28444,22.20,1003.95,77.96,77.64,0.04,-0.07,1.15,4.57,-1.21,11.05,52.98,77.00,330.07,20.51
28478,22.20,1003.87,78.64,77.84,0.05,-0.08,1.14,4.92,-0.22,11.34,52.99,77.00,330.46,21.00
28509,22.20,1003.87,78.64,78.00,0.05,-0.08,1.15,4.59,-0.80,11.05,52.98,76.99,330.80,21.00
28540,22.20,1003.87,78.64,78.13,0.04,-0.07,1.15,4.54,-0.91,10.91,52.97,76.98,331.14,20.51
28572,22.20,1003.82,78.99,78.30,0.04,-0.07,1.15,4.56,-0.74,10.82,52.97,76.98,331.48,20.51
28604,22.20,1003.82,78.99,78.44,0.05,-0.07,1.16,4.72,-0.45,11.32,52.97,76.98,331.85,21.48
28635,22.20,1003.82,78.99,78.55,0.04,-0.07,1.15,4.60,0.07,10.99,52.97,77.00,332.20,21.00
28669,22.20,1003.80,79.17,78.67,0.04,-0.08,1.15,4.71,-0.83,10.91,52.97,76.99,332.56,19.53
28701,22.20,1003.80,79.17,78.77,0.03,-0.07,1.15,4.51,-0.24,10.93,52.97,77.01,332.91,20.51
28733,22.20,1003.80,79.17,78.85,0.04,-0.07,1.16,4.83,-0.12,11.05,52.98,77.03,333.26,20.51
28765,22.20,1003.76,79.54,78.99,0.04,-0.08,1.15,4.82,-0.07,11.17,52.97,77.05,333.62,20.02
28796,22.20,1003.76,79.54,79.10,0.04,-0.07,1.16,4.72,-0.88,11.08,52.97,77.04,333.96,20.51
28828,22.20,1003.76,79.54,79.19,0.04,-0.08,1.15,4.69,-1.35,10.86,52.97,77.02,334.31,20.51
28862,22.20,1003.71,79.96,79.34,0.04,-0.07,1.15,4.79,-0.39,11.34,52.99,77.02,334.69,21.00
28893,22.20,1003.71,79.96,79.46,0.04,-0.07,1.16,4.85,-0.94,11.22,52.98,77.01,335.04,21.00
28924,22.20,1003.71,79.96,79.56,0.05,-0.07,1.14,4.48,-0.74,10.97,52.98,77.00,335.38,21.00
28956,22.20,1003.64,80.56,79.76,0.04,-0.08,1.16,4.60,-0.41,10.89,52.97,77.01,335.73,21.00
28988,22.20,1003.64,80.56,79.92,0.04,-0.07,1.15,4.68,-0.25,10.85,52.97,77.02,336.08,21.00
29021,22.20,1003.64,80.56,80.05,0.04,-0.08,1.15,4.65,-0.25,11.09,52.97,77.03,336.44,20.02
29052,22.20,1003.61,80.82,80.20,0.05,-0.07,1.15,4.51,-0.18,10.94,52.95,77.04,336.78,20.02
29084,22.20,1003.61,80.82,80.33,0.05,-0.07,1.16,4.94,-1.15,10.99,52.97,77.02,337.13,21.00
29116,22.20,1003.61,80.82,80.42,0.04,-0.07,1.16,4.72,-1.34,11.03,52.97,77.00,337.49,20.51
29147,22.20,1003.56,81.17,80.57,0.04,-0.06,1.16,4.82,-0.89,11.31,52.98,76.99,337.85,20.51
29179,22.20,1003.56,81.17,80.69,0.04,-0.07,1.15,4.71,-0.54,11.15,52.98,76.99,338.20,20.51
29213,22.20,1003.56,81.17,80.79,0.04,-0.07,1.15,4.77,-1.35,10.97,52.99,76.97,338.57,20.51
29245,22.20,1003.52,81.53,80.94,0.04,-0.07,1.15,4.80,-1.15,11.02,53.00,76.95,338.92,21.00
29277,22.20,1003.52,81.53,81.06,0.05,-0.07,1.15,4.62,-1.05,11.34,53.00,76.94,339.28,21.00
29308,22.20,1003.52,81.53,81.15,0.04,-0.07,1.15,4.77,-0.33,11.14,53.00,76.95,339.63,21.48
29340,22.20,1003.47,81.97,81.32,0.04,-0.07,1.16,4.65,-0.65,10.96,52.99,76.95,339.98,20.51
29374,22.20,1003.47,81.97,81.45,0.04,-0.07,1.16,4.80,-1.06,10.88,53.00,76.93,340.35,21.48
29405,22.20,1003.47,81.97,81.55,0.04,-0.06,1.16,4.69,-0.62,11.03,53.00,76.94,340.69,20.51
29436,22.20,1003.41,82.45,81.73,0.04,-0.08,1.15,4.69,0.24,11.22,52.99,76.97,341.04,21.48
29468,22.20,1003.41,82.45,81.88,0.04,-0.08,1.15,4.65,-0.05,10.96,52.99,76.99,341.39,20.51
29500,22.20,1003.41,82.45,81.99,0.05,-0.07,1.14,4.68,-0.97,10.85,52.99,76.97,341.74,20.51
29531,22.20,1003.39,82.59,82.11,0.03,-0.07,1.16,4.82,-1.14,10.88,52.99,76.96,342.09,21.00
29565,22.20,1003.39,82.59,82.21,0.04,-0.07,1.15,4.77,-0.34,11.29,53.00,76.97,342.46,21.00
29597,22.20,1003.39,82.59,82.28,0.04,-0.07,1.15,4.76,-0.56,11.02,53.00,76.98,342.81,21.00
29629,22.20,1003.35,82.99,82.43,0.05,-0.07,1.15,4.71,-1.21,11.03,53.00,76.95,343.16,21.00
29661,22.20,1003.35,82.99,82.54,0.04,-0.07,1.15,4.59,-0.94,10.93,53.00,76.95,343.51,20.51
29692,22.20,1003.35,82.99,82.63,0.05,-0.07,1.16,4.72,-0.57,11.12,53.00,76.95,343.86,20.51
29724,22.20,1003.30,83.42,82.79,0.03,-0.08,1.15,4.80,-0.04,11.09,52.99,76.97,344.21,21.00
29758,22.20,1003.30,83.42,82.91,0.04,-0.07,1.15,4.62,-0.92,10.71,53.00,76.96,344.58,21.48
29789,22.20,1003.30,83.42,83.02,0.03,-0.07,1.15,4.62,-0.41,10.80,52.99,76.98,344.91,20.51
29820,22.20,1003.25,83.82,83.18,0.04,-0.07,1.16,4.77,-0.54,11.05,52.99,76.98,345.25,21.00
29852,22.20,1003.25,83.82,83.30,0.04,-0.07,1.16,4.94,-0.73,11.38,53.00,76.98,345.62,20.02
29884,22.20,1003.25,83.82,83.41,0.04,-0.07,1.15,4.80,-1.00,11.03,53.00,76.96,345.97,21.00
29917,22.20,1003.22,84.09,83.54,0.04,-0.07,1.15,4.91,-1.26,10.83,53.01,76.95,346.33,20.02
29948,22.20,1003.22,84.09,83.65,0.03,-0.07,1.15,4.56,-1.06,10.99,53.00,76.94,346.67,20.51
29980,22.20,1003.22,84.09,83.74,0.04,-0.08,1.16,4.74,-0.76,11.22,53.00,76.94,347.03,21.48
30012,22.20,1003.15,84.66,83.92,0.04,-0.07,1.15,4.59,-0.38,10.70,52.99,76.95,347.37,20.51
30043,22.20,1003.15,84.66,84.07,0.05,-0.07,1.14,4.50,-0.47,10.86,52.99,76.94,347.72,21.00
30075,22.20,1003.15,84.66,84.19,0.04,-0.07,1.15,4.71,-0.44,10.57,52.99,76.96,348.05,21.00
30109,22.20,1003.10,85.05,84.36,0.04,-0.06,1.15,4.92,-0.41,11.23,53.01,76.96,348.43,21.00
30141,22.20,1003.10,85.05,84.50,0.04,-0.07,1.15,4.60,-0.05,10.82,53.01,76.98,348.77,21.00
30173,22.20,1003.10,85.05,84.61,0.05,-0.07,1.15,4.42,-0.44,10.86,53.00,76.97,349.12,20.51
30204,22.20,1003.07,85.34,84.75,0.04,-0.07,1.16,4.69,-0.59,10.59,53.00,76.98,349.45,21.48
30236,22.20,1003.07,85.34,84.87,0.04,-0.07,1.15,4.89,-1.05,11.38,53.00,76.97,349.81,20.51
30268,22.20,1003.07,85.34,84.96,0.04,-0.07,1.15,4.89,-0.73,11.37,53.01,76.97,350.18,20.51
30301,22.21,1003.04,85.58,85.09,0.05,-0.07,1.15,4.71,-0.99,10.97,53.02,76.95,350.54,20.51
30332,22.21,1003.04,85.58,85.19,0.03,-0.07,1.16,4.60,-1.26,11.06,53.01,76.94,350.88,21.00
30364,22.21,1003.04,85.58,85.27,0.04,-0.07,1.15,4.72,-0.74,11.02,53.01,76.94,351.24,21.00
30396,22.20,1002.98,86.04,85.42,0.03,-0.07,1.16,4.65,-0.62,11.29,53.01,76.95,351.60,21.00
30427,22.20,1002.98,86.04,85.54,0.04,-0.08,1.15,4.51,0.13,11.00,52.99,76.97,351.95,20.51
30461,22.20,1002.98,86.04,85.64,0.04,-0.07,1.16,4.68,-1.00,10.74,53.00,76.96,352.30,20.51
30493,22.20,1002.93,86.51,85.81,0.04,-0.07,1.16,4.68,-0.38,10.85,53.00,76.97,352.65,21.00
30525,22.20,1002.93,86.51,85.95,0.04,-0.07,1.16,4.85,-0.05,11.20,53.01,76.99,353.01,20.51
30557,22.20,1002.93,86.51,86.06,0.05,-0.07,1.15,4.76,-0.07,10.82,53.01,77.00,353.36,21.00
30588,22.20,1002.88,86.92,86.24,0.04,-0.07,1.15,4.95,-0.96,10.86,53.02,76.99,353.69,21.00
30620,22.20,1002.88,86.92,86.37,0.03,-0.08,1.16,4.65,-1.18,10.74,53.01,76.98,354.04,21.00
30654,22.20,1002.88,86.92,86.48,0.04,-0.07,1.15,4.82,-0.16,11.22,53.02,77.00,354.42,21.00
30685,22.20,1002.85,87.14,86.62,0.03,-0.07,1.16,5.08,-0.71,11.29,53.03,77.01,354.77,21.48
30716,22.20,1002.85,87.14,86.72,0.05,-0.06,1.15,4.69,-0.86,11.05,53.03,76.99,355.11,20.51
30748,22.20,1002.85,87.14,86.80,0.04,-0.07,1.14,4.48,-1.26,10.76,53.02,76.97,355.45,21.00
30780,22.20,1002.81,87.53,86.95,0.04,-0.08,1.15,4.43,-0.47,10.83,53.01,76.97,355.80,21.00
30813,22.20,1002.81,87.53,87.07,0.04,-0.07,1.15,4.74,-0.65,11.25,53.02,76.98,356.17,21.48
30844,22.20,1002.81,87.53,87.16,0.04,-0.07,1.16,4.54,-0.12,11.17,53.01,77.00,356.52,20.02
30876,22.20,1002.79,87.69,87.26,0.05,-0.07,1.15,4.56,-0.27,10.80,53.01,77.00,356.86,20.51
30908,22.20,1002.79,87.69,87.35,0.04,-0.08,1.16,4.45,-0.68,10.82,53.00,77.00,357.21,20.02
30939,22.20,1002.79,87.69,87.42,0.04,-0.08,1.16,4.56,-0.41,10.97,52.99,77.01,357.56,21.00
30971,22.20,1002.74,88.07,87.55,0.04,-0.07,1.15,4.94,-0.53,11.37,53.00,77.02,357.91,20.51
31005,22.20,1002.74,88.07,87.65,0.05,-0.07,1.14,4.62,-0.12,10.80,53.00,77.02,358.28,20.51
31037,22.20,1002.74,88.07,87.73,0.04,-0.07,1.16,4.72,-0.53,10.97,53.00,77.03,358.63,21.00
31069,22.20,1002.72,88.22,87.83,0.04,-0.08,1.15,4.65,-0.47,10.88,53.00,77.03,358.98,21.00
31100,22.20,1002.72,88.22,87.91,0.04,-0.07,1.16,4.89,-0.85,11.40,53.00,77.02,359.33,21.48
31132,22.20,1002.72,88.22,87.97,0.04,-0.07,1.15,4.91,-0.82,11.37,53.01,77.01,359.70,20.02
31164,22.20,1002.72,88.62,88.10,0.04,-0.07,1.15,4.66,-0.74,10.97,53.01,77.01,360.05,20.51
31197,22.20,1002.67,88.65,88.21,0.03,-0.08,1.15,4.74,-1.35,10.76,53.01,77.00,360.40,21.48
31228,22.20,1002.67,88.65,88.30,0.03,-0.07,1.16,4.54,-1.14,11.05,53.00,76.99,360.75,21.00
31260,22.20,1002.67,88.65,88.37,0.04,-0.07,1.15,4.80,-0.88,11.37,53.01,76.98,361.11,21.00
31292,22.20,1002.61,89.15,88.52,0.04,-0.08,1.15,4.66,-0.02,10.97,53.00,77.00,361.46,21.00
31323,22.20,1002.61,89.15,88.65,0.05,-0.07,1.15,4.43,-0.51,10.79,53.00,76.99,361.81,20.02
31357,22.20,1002.61,89.40,88.80,0.04,-0.07,1.15,4.63,-0.91,10.99,53.00,76.99,362.17,21.00
31389,22.20,1002.59,89.36,88.91,0.04,-0.07,1.16,4.57,-0.53,11.11,53.00,76.99,362.52,20.02
31421,22.20,1002.59,89.36,89.00,0.04,-0.07,1.15,4.69,-0.10,11.00,53.01,77.01,362.88,20.02
31453,22.20,1002.59,89.36,89.07,0.05,-0.07,1.15,4.53,-0.28,10.99,53.00,77.02,363.23,20.51
31484,22.20,1002.53,89.88,89.24,0.05,-0.08,1.16,4.76,-0.48,10.71,53.00,77.01,363.56,20.02
31516,22.20,1002.53,89.88,89.36,0.04,-0.07,1.15,4.76,-0.57,10.83,53.00,77.01,363.91,21.00
31550,22.20,1002.53,89.88,89.47,0.04,-0.07,1.15,4.72,0.10,10.94,53.01,77.04,364.28,21.00
31581,22.20,1002.49,90.21,89.62,0.03,-0.08,1.14,4.74,-0.56,11.20,53.00,77.05,364.63,21.00
31612,22.20,1002.49,90.21,89.73,0.05,-0.07,1.15,4.72,-1.25,11.00,53.00,77.02,364.97,21.48
31644,22.20,1002.49,90.21,89.83,0.03,-0.08,1.15,4.57,-1.28,10.83,52.99,77.01,365.31,20.51
31676,22.20,1002.44,90.62,89.99,0.04,-0.07,1.15,4.57,-0.70,11.14,52.99,77.00,365.67,21.00
31707,22.20,1002.44,90.62,90.11,0.04,-0.07,1.16,4.72,-0.50,11.41,52.99,77.01,366.03,20.51
31741,22.20,1002.44,90.62,90.21,0.05,-0.06,1.14,4.72,-1.25,11.06,53.01,76.98,366.40,20.51
31773,22.20,1002.40,90.93,90.36,0.04,-0.08,1.15,4.65,-1.14,10.88,53.00,76.97,366.75,21.48
31805,22.20,1002.40,90.93,90.47,0.04,-0.07,1.15,4.51,-0.45,10.83,52.99,76.98,367.09,21.00
31837,22.20,1002.40,90.93,90.56,0.04,-0.07,1.16,4.74,-0.27,11.32,53.00,76.99,367.46,20.51
31868,22.20,1002.35,91.36,90.72,0.04,-0.07,1.15,4.66,0.17,10.88,52.99,77.02,367.79,20.02
31902,22.20,1002.35,91.36,90.85,0.04,-0.08,1.16,4.54,-0.97,10.67,52.99,77.01,368.16,21.48
31934,22.20,1002.35,91.36,90.95,0.03,-0.07,1.15,4.39,-0.39,10.77,52.98,77.02,368.50,21.00
31965,22.20,1002.33,91.53,91.07,0.05,-0.07,1.16,4.74,-0.85,11.37,52.98,77.01,368.85,20.51
31996,22.20,1002.33,91.53,91.16,0.03,-0.08,1.16,4.79,-0.70,11.26,52.97,77.01,369.20,21.00
32028,22.20,1002.33,91.53,91.23,0.04,-0.07,1.15,4.80,-0.85,11.05,52.98,77.01,369.56,21.00
32060,22.20,1002.28,91.92,91.37,0.04,-0.07,1.15,4.63,-1.12,10.97,52.98,76.99,369.91,20.51
32093,22.20,1002.28,91.92,91.48,0.04,-0.07,1.16,4.74,-1.00,10.88,52.99,76.97,370.27,20.51
32124,22.20,1002.28,91.92,91.57,0.03,-0.07,1.15,4.76,-0.68,11.47,52.99,76.98,370.62,21.00
32156,22.20,1002.23,92.34,91.72,0.04,-0.07,1.14,4.68,-0.12,10.96,52.98,76.99,370.97,20.51
32188,22.20,1002.23,92.34,91.85,0.05,-0.07,1.15,4.51,-0.62,10.77,52.98,76.98,371.32,21.00
32219,22.20,1002.23,92.34,91.95,0.03,-0.07,1.16,4.62,-0.28,10.74,52.98,77.00,371.66,21.00
32253,22.20,1002.20,92.63,92.08,0.03,-0.07,1.16,4.72,-0.48,11.34,52.98,77.01,372.04,21.48
32285,22.20,1002.20,92.63,92.19,0.04,-0.07,1.15,4.62,0.14,11.08,52.98,77.04,372.39,21.48
32317,22.20,1002.20,92.63,92.28,0.04,-0.07,1.15,4.68,-0.47,10.83,52.99,77.04,372.74,21.00
32349,22.20,1002.17,92.87,92.40,0.04,-0.07,1.15,4.62,-0.67,10.73,52.98,77.04,373.08,21.48
32380,22.20,1002.17,92.87,92.49,0.04,-0.07,1.16,4.74,-1.00,11.00,52.98,77.03,373.42,20.51
32412,22.20,1002.17,92.87,92.57,0.04,-0.07,1.16,4.89,-0.76,11.55,52.99,77.03,373.79,20.51
32446,22.20,1002.11,93.36,92.73,0.06,-0.07,1.15,4.65,-0.28,10.79,53.00,77.02,374.16,20.51
32477,22.20,1002.11,93.36,92.85,0.04,-0.07,1.15,4.80,-1.50,10.88,53.00,77.00,374.49,21.00
32508,22.20,1002.11,93.36,92.96,0.03,-0.07,1.15,4.74,-1.11,10.94,53.00,76.99,374.83,21.00
32540,22.20,1002.07,93.67,93.10,0.04,-0.06,1.15,4.72,-0.92,11.37,53.01,76.98,375.20,21.00
32572,22.20,1002.07,93.67,93.21,0.04,-0.07,1.15,4.83,-0.44,11.22,53.01,76.99,375.56,21.48
32603,22.20,1002.07,93.67,93.30,0.05,-0.07,1.14,4.42,-0.48,11.00,53.00,76.99,375.91,21.00
32637,22.20,1002.03,94.08,93.46,0.04,-0.08,1.15,4.62,-0.96,10.71,53.00,76.98,376.26,21.00
32669,22.20,1002.03,94.08,93.58,0.04,-0.07,1.16,4.65,-0.96,11.38,53.00,76.96,376.63,21.00
32701,22.20,1002.03,94.08,93.68,0.04,-0.07,1.15,5.03,0.01,11.43,53.01,76.99,376.99,20.51
32733,22.20,1002.00,94.29,93.80,0.04,-0.07,1.14,4.43,-0.25,10.73,53.00,77.00,377.34,21.00
32764,22.20,1002.00,94.29,93.90,0.04,-0.07,1.15,4.66,-0.63,10.82,53.00,77.00,377.67,20.51
32798,22.20,1002.00,94.29,93.98,0.04,-0.06,1.16,4.68,-0.51,11.03,53.02,77.00,378.05,20.51
32830,22.21,1001.98,94.45,94.07,0.03,-0.07,1.16,4.92,-0.05,11.25,53.02,77.02,378.41,20.51
32861,22.21,1001.98,94.45,94.15,0.04,-0.07,1.15,4.88,-0.25,11.11,53.02,77.04,378.75,21.00
32892,22.21,1001.98,94.45,94.21,0.06,-0.07,1.14,4.71,-0.99,10.99,53.02,77.01,379.09,21.00
32924,22.20,1001.92,94.94,94.35,0.04,-0.07,1.15,4.62,-1.28,10.67,53.02,76.99,379.43,21.48
32956,22.20,1001.92,94.94,94.47,0.04,-0.07,1.15,4.80,-1.03,11.02,53.03,76.97,379.78,21.00
32989,22.20,1001.92,94.94,94.56,0.04,-0.07,1.16,4.97,-0.59,11.31,53.04,76.98,380.16,20.51
33020,22.20,1001.87,95.40,94.73,0.04,-0.07,1.15,4.79,-0.48,11.03,53.04,76.98,380.50,20.51
33052,22.20,1001.87,95.40,94.87,0.05,-0.07,1.14,4.77,-1.35,10.89,53.04,76.95,380.85,20.51
33084,22.20,1001.87,95.40,94.97,0.04,-0.07,1.15,4.66,-1.23,10.96,53.04,76.93,381.20,20.51
33115,22.21,1001.83,95.73,95.13,0.04,-0.07,1.15,4.68,-0.94,11.38,53.04,76.92,381.56,20.51
33147,22.21,1001.83,95.73,95.25,0.04,-0.07,1.16,4.97,-0.56,11.29,53.04,76.93,381.91,20.51
33181,22.21,1001.83,95.73,95.34,0.05,-0.07,1.14,4.63,-1.40,10.93,53.05,76.89,382.28,21.00
33213,22.20,1001.80,95.99,95.47,0.03,-0.07,1.16,4.59,-1.02,10.74,53.05,76.89,382.63,20.02
33245,22.20,1001.80,95.99,95.58,0.04,-0.07,1.15,4.65,-0.67,11.14,53.05,76.89,382.98,21.00
33276,22.20,1001.80,95.99,95.66,0.04,-0.08,1.16,4.77,-0.33,11.08,53.04,76.90,383.33,21.48
33308,22.20,1001.76,96.28,95.79,0.04,-0.08,1.15,4.60,-0.30,11.00,53.03,76.92,383.68,21.00
33342,22.20,1001.76,96.28,95.88,0.04,-0.07,1.15,4.48,-1.25,10.79,53.03,76.90,384.05,21.00
33373,22.20,1001.76,96.28,95.96,0.03,-0.07,1.16,4.50,-0.50,10.88,53.02,76.91,384.38,21.00
33404,22.20,1001.69,96.90,96.15,0.04,-0.07,1.15,4.72,-0.24,11.23,53.02,76.93,384.73,20.51
33436,22.20,1001.69,96.90,96.30,0.04,-0.08,1.15,4.60,0.05,11.05,53.01,76.95,385.09,21.00
33468,22.20,1001.69,96.90,96.42,0.05,-0.07,1.14,4.57,-0.60,10.86,53.01,76.95,385.43,21.48
33499,22.21,1001.67,97.06,96.55,0.05,-0.08,1.15,4.88,-1.02,11.02,53.01,76.93,385.79,21.00
33533,22.21,1001.67,97.06,96.65,0.04,-0.07,1.15,4.79,-0.13,11.20,53.02,76.94,386.16,21.48
33565,22.21,1001.67,97.06,96.73,0.04,-0.07,1.15,4.69,0.16,11.00,53.02,76.97,386.51,20.51
33597,22.20,1001.61,97.54,96.90,0.05,-0.07,1.13,4.77,-0.57,10.97,53.02,76.96,386.86,21.48
33629,22.20,1001.61,97.54,97.03,0.04,-0.07,1.14,4.82,-1.28,10.83,53.02,76.94,387.21,21.00
33660,22.20,1001.61,97.54,97.13,0.04,-0.07,1.16,4.74,-1.23,10.88,53.02,76.92,387.54,20.51
33692,22.20,1001.56,98.01,97.31,0.04,-0.07,1.16,4.92,-1.00,11.37,53.03,76.91,387.91,20.51
33726,22.20,1001.56,98.01,97.45,0.05,-0.07,1.15,4.77,-0.86,10.99,53.05,76.89,388.28,21.48
33757,22.20,1001.56,98.01,97.56,0.04,-0.07,1.15,4.63,-1.29,10.86,53.04,76.88,388.62,21.48
33788,22.20,1001.52,98.30,97.71,0.03,-0.07,1.15,4.39,-0.65,11.05,53.03,76.89,388.96,21.00
33820,22.20,1001.52,98.30,97.83,0.04,-0.07,1.15,4.95,-0.24,11.34,53.04,76.91,389.32,20.02
33852,22.20,1001.52,98.30,97.92,0.04,-0.08,1.16,4.74,0.21,11.08,53.03,76.94,389.68,20.51
33885,22.20,1001.50,98.54,98.04,0.05,-0.07,1.15,4.51,-0.54,10.71,53.04,76.94,390.03,20.51
33916,22.20,1001.50,98.54,98.14,0.03,-0.07,1.15,4.53,-0.39,10.74,53.03,76.96,390.36,20.02
33948,22.20,1001.50,98.54,98.22,0.05,-0.06,1.16,4.74,-0.53,11.25,53.04,76.95,390.72,20.51
33980,22.20,1001.44,98.97,98.37,0.03,-0.07,1.15,4.98,-0.56,11.37,53.04,76.96,391.09,20.02
34011,22.20,1001.44,98.97,98.49,0.05,-0.07,1.15,4.74,-1.09,10.99,53.05,76.94,391.44,21.00
34043,22.20,1001.44,98.97,98.59,0.03,-0.08,1.15,4.69,-1.29,10.86,53.04,76.93,391.77,20.51
34077,22.20,1001.38,99.47,98.76,0.04,-0.06,1.16,4.83,-0.51,11.28,53.06,76.94,392.16,21.00
34109,22.20,1001.38,99.47,98.91,0.03,-0.07,1.14,4.92,-0.60,11.17,53.06,76.94,392.52,21.48
34141,22.20,1001.38,99.47,99.02,0.05,-0.06,1.15,4.68,-1.34,10.99,53.07,76.91,392.87,21.00
34172,22.20,1001.36,99.70,99.16,0.04,-0.07,1.16,4.72,-0.99,10.73,53.06,76.91,393.20,21.00
34204,22.20,1001.36,99.70,99.27,0.04,-0.07,1.15,4.60,-0.59,11.31,53.06,76.91,393.56,21.48
34238,22.20,1001.36,99.70,99.35,0.04,-0.07,1.14,4.74,-0.89,10.96,53.07,76.90,393.93,21.48
34269,22.20,1001.32,100.03,99.49,0.05,-0.06,1.14,4.43,-1.03,11.26,53.08,76.88,394.28,20.51
34300,22.20,1001.32,100.03,99.60,0.04,-0.08,1.16,4.65,-0.56,10.67,53.06,76.89,394.61,21.00
34332,22.20,1001.32,100.03,99.68,0.04,-0.07,1.14,4.86,-0.39,11.20,53.07,76.89,394.97,21.00
34364,22.20,1001.29,100.23,99.79,0.04,-0.08,1.15,4.86,0.16,11.15,53.07,76.92,395.33,20.51
34395,22.20,1001.29,100.23,99.88,0.05,-0.07,1.15,4.57,-0.44,10.85,53.07,76.91,395.68,20.51
34429,22.20,1001.29,100.23,99.95,0.04,-0.07,1.16,4.62,-0.45,10.77,53.07,76.93,396.03,21.00
34461,22.20,1001.25,100.64,100.09,0.05,-0.07,1.16,4.77,-0.27,11.41,53.08,76.93,396.40,20.51
34493,22.20,1001.25,100.64,100.20,0.04,-0.07,1.15,4.82,0.08,10.93,53.08,76.96,396.75,21.00
34525,22.20,1001.25,100.64,100.29,0.05,-0.07,1.14,4.74,-0.79,10.85,53.08,76.95,397.09,21.00
34556,22.20,1001.22,100.84,100.40,0.04,-0.07,1.16,4.77,-0.91,10.65,53.08,76.94,397.42,20.51
34588,22.20,1001.22,100.84,100.49,0.05,-0.07,1.15,4.85,-1.02,11.37,53.09,76.93,397.79,20.51
34622,22.20,1001.22,100.84,100.56,0.05,-0.07,1.16,4.65,-0.13,10.99,53.10,76.94,398.16,20.51
34653,22.20,1001.17,101.27,100.70,0.04,-0.07,1.15,4.76,-1.32,11.00,53.09,76.91,398.50,20.51
34684,22.20,1001.17,101.27,100.81,0.03,-0.07,1.16,4.76,-1.12,10.79,53.09,76.91,398.84,20.02
34716,22.20,1001.17,101.27,100.91,0.05,-0.07,1.15,4.68,-0.86,10.89,53.09,76.90,399.19,20.02
34748,22.20,1001.14,101.55,101.03,0.04,-0.07,1.15,4.77,-0.62,11.44,53.09,76.90,399.55,21.00
34781,22.20,1001.14,101.55,101.14,0.05,-0.07,1.15,4.59,-0.60,11.00,53.09,76.90,399.91,21.00
34812,22.20,1001.14,101.55,101.22,0.04,-0.07,1.14,4.63,-1.17,10.86,53.08,76.88,400.25,20.02
34844,22.20,1001.09,101.98,101.37,0.03,-0.07,1.16,4.42,-0.57,10.60,53.07,76.89,400.59,20.51
34876,22.20,1001.09,101.98,101.49,0.03,-0.08,1.16,4.72,-0.30,11.26,53.07,76.91,400.95,21.00
34907,22.20,1001.09,101.98,101.59,0.03,-0.08,1.16,4.85,-0.18,11.25,53.06,76.94,401.31,21.48
34939,22.20,1001.04,102.33,101.74,0.05,-0.07,1.14,4.72,-0.59,10.91,53.05,76.93,401.65,21.00
34979,22.20,1001.04,102.33,101.86,0.04,-0.07,1.15,4.69,0.04,11.28,53.09,76.95,402.10,21.00
35011,22.20,1001.04,102.33,101.95,0.05,-0.07,1.15,4.62,-0.05,10.91,53.09,76.97,402.45,20.02
35042,22.20,1001.02,102.52,102.06,0.05,-0.06,1.15,4.65,-1.02,10.94,53.09,76.95,402.79,20.51
35073,22.20,1001.02,102.52,102.16,0.03,-0.07,1.15,4.76,-1.38,10.94,53.09,76.93,403.13,21.00
35105,22.20,1001.02,102.52,102.23,0.04,-0.07,1.15,4.79,-1.09,11.17,53.09,76.92,403.48,20.51
35139,22.20,1000.97,102.93,102.37,0.04,-0.07,1.15,4.88,-0.47,11.26,53.11,76.93,403.87,20.51
35170,22.20,1000.97,102.93,102.48,0.05,-0.07,1.15,4.48,-0.91,10.89,53.10,76.91,404.21,21.00
35201,22.20,1000.97,102.93,102.57,0.04,-0.07,1.16,4.63,-0.99,10.70,53.08,76.91,404.54,20.51
35233,22.20,1000.93,103.29,102.71,0.04,-0.07,1.15,4.39,-0.57,10.68,53.07,76.91,404.88,20.02
35265,22.20,1000.93,103.29,102.83,0.05,-0.07,1.15,4.88,-0.33,11.37,53.08,76.91,405.24,21.00
35296,22.20,1000.93,103.29,102.92,0.04,-0.08,1.15,4.82,0.21,11.08,53.07,76.94,405.59,21.00
35329,22.20,1000.88,103.73,103.08,0.04,-0.07,1.15,4.53,-1.00,10.83,53.07,76.93,405.94,20.51
35361,22.20,1000.88,103.73,103.21,0.04,-0.07,1.14,4.46,-0.27,10.71,53.06,76.94,406.29,20.02
35393,22.20,1000.88,103.73,103.32,0.04,-0.07,1.15,4.83,-0.10,11.26,53.07,76.97,406.65,21.00
35424,22.21,1000.84,104.09,103.47,0.04,-0.07,1.16,5.05,-0.59,11.29,53.08,76.97,407.00,20.51
35455,22.21,1000.84,104.09,103.59,0.04,-0.07,1.15,4.71,-0.76,11.00,53.07,76.97,407.34,20.51
35489,22.21,1000.84,104.09,103.69,0.04,-0.07,1.16,4.51,-0.33,10.62,53.08,76.98,407.70,21.48
35521,22.20,1000.79,104.45,103.84,0.04,-0.07,1.15,4.74,-0.56,11.12,53.08,76.98,408.05,21.00
35552,22.20,1000.79,104.45,103.96,0.04,-0.07,1.15,4.95,-0.82,11.35,53.08,76.98,408.41,21.00
35583,22.20,1000.79,104.45,104.06,0.03,-0.08,1.15,4.79,-0.47,11.00,53.08,76.99,408.75,21.00
35615,22.20,1000.79,104.63,104.18,0.05,-0.07,1.15,4.57,-1.06,10.97,53.07,76.97,409.10,20.51
35647,22.20,1000.77,104.63,104.27,0.03,-0.07,1.16,4.56,-1.00,10.67,53.06,76.97,409.44,21.48
35680,22.20,1000.77,104.63,104.34,0.04,-0.07,1.15,4.69,-0.99,11.17,53.07,76.95,409.81,20.51
35711,22.20,1000.77,104.63,104.40,0.03,-0.07,1.15,4.79,-0.47,11.34,53.06,76.97,410.16,20.02
35743,22.20,1000.72,105.04,104.53,0.05,-0.07,1.14,4.43,-0.45,10.83,53.06,76.96,410.51,20.51
35775,22.20,1000.72,105.04,104.63,0.04,-0.07,1.15,4.71,-0.48,10.91,53.06,76.96,410.86,21.48
35806,22.20,1000.72,105.04,104.71,0.03,-0.07,1.15,4.76,-1.05,10.89,53.05,76.96,411.19,21.48
35839,22.20,1000.69,105.30,104.83,0.03,-0.07,1.15,4.98,-0.05,11.51,53.06,76.98,411.57,20.51
35871,22.20,1000.69,105.30,104.92,0.04,-0.07,1.15,4.77,-0.45,11.03,53.07,76.99,411.93,20.02
35903,22.20,1000.69,105.30,105.00,0.05,-0.07,1.15,4.59,-1.40,11.03,53.07,76.96,412.28,21.00
35934,22.20,1000.63,105.80,105.16,0.03,-0.07,1.16,4.60,-1.06,10.70,53.06,76.95,412.61,19.53
35965,22.20,1000.63,105.80,105.29,0.04,-0.07,1.16,4.57,-0.62,10.80,53.05,76.96,412.95,21.00
35997,22.20,1000.63,105.80,105.39,0.04,-0.07,1.15,4.77,-0.41,11.20,53.05,76.97,413.30,21.00
36031,22.21,1000.61,105.96,105.50,0.04,-0.07,1.14,4.50,-1.00,10.86,53.06,76.95,413.67,21.00
36062,22.21,1000.61,105.96,105.59,0.04,-0.07,1.15,4.59,-0.86,10.85,53.06,76.94,414.01,21.00
36093,22.21,1000.61,105.96,105.67,0.04,-0.07,1.15,4.62,-0.41,10.74,53.04,76.95,414.34,20.51
36125,22.20,1000.54,106.56,105.84,0.04,-0.07,1.16,4.72,-0.44,11.15,53.04,76.96,414.70,20.51
36157,22.20,1000.54,106.56,105.99,0.03,-0.07,1.15,4.82,-0.16,11.11,53.05,76.98,415.06,21.00
36190,22.20,1000.54,106.56,106.10,0.04,-0.07,1.14,4.59,-0.50,10.88,53.05,76.98,415.41,21.00
36221,22.21,1000.52,106.70,106.22,0.04,-0.07,1.15,4.54,-0.38,10.70,53.04,76.99,415.75,21.00
36253,22.21,1000.52,106.70,106.32,0.04,-0.07,1.15,4.92,-0.34,11.32,53.05,77.00,416.11,20.51
36285,22.21,1000.52,106.70,106.39,0.04,-0.07,1.15,5.12,-0.47,11.26,53.07,77.01,416.47,20.02
36317,22.20,1000.48,107.10,106.54,0.05,-0.07,1.14,4.60,-1.05,11.09,53.07,76.99,416.82,21.48
36348,22.20,1000.48,107.10,106.65,0.04,-0.07,1.15,4.60,-1.35,10.88,53.06,76.97,417.16,21.00
36382,22.20,1000.48,107.10,106.74,0.04,-0.07,1.16,4.77,-0.96,11.18,53.08,76.96,417.54,21.00
36414,22.20,1000.46,107.26,106.84,0.04,-0.07,1.15,4.95,-0.74,11.38,53.08,76.96,417.91,21.48
36445,22.20,1000.46,107.26,106.93,0.05,-0.07,1.15,4.77,-0.50,11.00,53.07,76.96,418.25,21.00
36476,22.20,1000.46,107.26,106.99,0.05,-0.06,1.16,4.51,-0.99,10.97,53.07,76.95,418.59,21.00
36508,22.20,1000.41,107.68,107.13,0.03,-0.07,1.16,4.59,-0.24,10.62,53.07,76.96,418.93,21.48
36542,22.20,1000.41,107.68,107.24,0.04,-0.07,1.15,4.83,-0.54,11.35,53.09,76.97,419.31,21.00
36573,22.20,1000.41,107.68,107.33,0.04,-0.07,1.15,4.72,0.17,10.97,53.08,77.00,419.65,21.00
36604,22.20,1000.37,108.00,107.46,0.04,-0.07,1.15,4.68,-0.73,10.93,53.08,76.99,419.99,21.00
36636,22.20,1000.37,108.00,107.57,0.04,-0.07,1.15,4.76,-1.08,10.85,53.07,76.98,420.34,21.00
36668,22.20,1000.37,108.00,107.65,0.04,-0.07,1.15,4.69,-1.02,11.22,53.08,76.98,420.70,21.00
36699,22.20,1000.31,108.54,107.83,0.03,-0.08,1.15,4.94,-0.60,11.37,53.08,76.98,421.06,21.48
36733,22.20,1000.31,108.54,107.97,0.04,-0.07,1.14,4.77,-1.21,11.03,53.08,76.96,421.43,21.00
36765,22.20,1000.31,108.54,108.09,0.04,-0.07,1.15,4.77,-1.28,10.94,53.08,76.94,421.78,20.51
36797,22.20,1000.27,108.85,108.24,0.04,-0.07,1.15,4.85,-1.02,11.28,53.09,76.94,422.14,21.48
36829,22.20,1000.27,108.85,108.36,0.04,-0.07,1.15,4.77,-0.34,11.28,53.09,76.95,422.50,21.00
36860,22.20,1000.27,108.85,108.46,0.05,-0.07,1.14,4.51,-0.53,10.86,53.08,76.94,422.83,21.48
36894,22.20,1000.24,109.12,108.59,0.04,-0.07,1.15,4.60,-0.97,10.65,53.09,76.93,423.20,20.51
36926,22.20,1000.24,109.12,108.69,0.04,-0.06,1.16,4.65,-0.85,11.32,53.10,76.93,423.56,21.00
36957,22.20,1000.24,109.12,108.78,0.04,-0.07,1.16,4.91,-0.04,11.12,53.10,76.95,423.90,21.00
36988,22.20,1000.22,109.30,108.88,0.05,-0.07,1.15,4.54,-0.19,10.79,53.09,76.96,424.24,19.53
37020,22.20,1000.22,109.30,108.97,0.04,-0.07,1.15,4.72,-0.74,10.93,53.09,76.96,424.59,20.51
37052,22.20,1000.22,109.30,109.03,0.04,-0.07,1.16,4.66,-0.62,10.88,53.09,76.97,424.94,21.00
37085,22.21,1000.17,109.71,109.17,0.04,-0.07,1.16,4.97,-0.28,11.35,53.11,76.98,425.31,20.51
37116,22.21,1000.17,109.71,109.28,0.05,-0.07,1.14,4.71,-0.56,11.12,53.10,76.98,425.65,20.02
37148,22.21,1000.17,109.71,109.36,0.04,-0.07,1.15,4.68,-1.50,10.93,53.10,76.95,426.00,20.51
37180,22.20,1000.12,110.11,109.51,0.04,-0.07,1.15,4.62,-1.17,10.91,53.10,76.94,426.35,21.00
37211,22.20,1000.12,110.11,109.63,0.04,-0.07,1.15,4.63,-0.73,11.26,53.10,76.94,426.71,21.48
37245,22.20,1000.12,110.11,109.73,0.05,-0.07,1.15,4.74,-0.86,11.20,53.10,76.92,427.08,20.51
37277,22.21,1000.11,110.21,109.83,0.05,-0.07,1.15,4.65,-1.21,10.80,53.10,76.90,427.43,20.02
37309,22.21,1000.11,110.21,109.90,0.04,-0.08,1.15,4.59,-1.02,10.82,53.09,76.89,427.78,20.51
37341,22.21,1000.11,110.21,109.96,0.05,-0.07,1.16,4.65,-0.45,11.05,53.09,76.89,428.13,21.00
37372,22.20,1000.03,110.85,110.14,0.04,-0.07,1.15,4.80,-0.22,11.29,53.08,76.91,428.48,19.53
37404,22.20,1000.03,110.85,110.28,0.04,-0.07,1.15,4.71,0.05,10.99,53.09,76.94,428.83,20.02
37438,22.20,1000.03,110.85,110.40,0.04,-0.07,1.16,4.46,-0.99,10.85,53.09,76.93,429.20,21.00
37469,22.21,1000.03,110.90,110.50,0.04,-0.07,1.15,4.62,-0.28,10.85,53.08,76.94,429.54,21.48
37500,22.21,1000.03,110.90,110.58,0.04,-0.04,1.14,5.53,-0.41,13.11,53.13,76.95,429.94,20.51
37532,22.21,1000.03,110.90,110.64,0.04,-0.07,1.15,4.59,-0.34,10.68,53.13,76.96,430.28,21.00
37564,22.20,999.97,111.38,110.79,0.05,-0.07,1.15,4.82,-1.08,10.82,53.13,76.94,430.63,19.53
37597,22.20,999.97,111.38,110.91,0.04,-0.07,1.14,4.83,-1.17,11.05,53.14,76.92,430.99,21.48
37628,22.20,999.97,111.38,111.00,0.04,-0.07,1.16,4.77,-0.99,11.06,53.14,76.92,431.34,21.48
37660,22.20,999.93,111.70,111.14,0.03,-0.07,1.15,4.89,-0.97,11.63,53.14,76.92,431.71,20.51
37692,22.20,999.93,111.70,111.25,0.04,-0.07,1.14,4.88,-0.42,11.05,53.14,76.93,432.06,20.51
37723,22.20,999.93,111.70,111.34,0.05,-0.07,1.15,4.62,-1.32,10.89,53.13,76.91,432.41,20.51
37755,22.20,999.87,112.19,111.51,0.04,-0.07,1.15,4.56,-1.03,10.73,53.12,76.89,432.74,20.02
37789,22.20,999.87,112.19,111.65,0.04,-0.07,1.16,4.95,-0.91,11.44,53.14,76.89,433.13,20.51
37821,22.20,999.87,112.19,111.76,0.04,-0.07,1.15,4.69,-0.38,11.26,53.14,76.90,433.49,21.00
37853,22.20,999.87,112.19,111.84,0.04,-0.07,1.15,4.48,-0.48,10.86,53.13,76.91,433.84,21.00
37884,22.20,999.87,112.19,111.91,0.05,-0.07,1.14,4.62,-0.65,10.68,53.12,76.90,434.17,21.48
37916,22.20,999.87,112.19,111.97,0.04,-0.07,1.16,4.57,-0.27,10.74,53.12,76.92,434.52,20.51
37950,22.20,999.82,112.65,112.10,0.04,-0.07,1.14,4.94,-0.02,11.22,53.14,76.94,434.90,21.00
37981,22.20,999.82,112.65,112.21,0.04,-0.08,1.14,4.77,0.04,11.08,53.13,76.96,435.24,20.51
38012,22.20,999.82,112.65,112.30,0.05,-0.07,1.15,4.76,-1.15,11.02,53.12,76.94,435.58,21.00
38044,22.20,999.76,113.10,112.46,0.04,-0.07,1.15,4.79,-1.21,10.88,53.12,76.92,435.93,20.51
38076,22.20,999.76,113.10,112.59,0.03,-0.08,1.16,4.68,-1.06,11.09,53.12,76.92,436.29,21.00
38107,22.20,999.76,113.10,112.69,0.04,-0.06,1.15,4.76,-0.73,11.28,53.12,76.92,436.65,21.48
38141,22.20,999.74,113.33,112.82,0.05,-0.07,1.14,4.79,-0.85,10.96,53.13,76.90,437.01,21.00
38173,22.20,999.74,113.33,112.92,0.04,-0.07,1.15,4.68,-1.52,10.86,53.13,76.87,437.36,20.51
38205,22.20,999.74,113.33,113.00,0.04,-0.07,1.15,4.69,-1.02,10.82,53.13,76.87,437.70,20.02
38237,22.20,999.68,113.80,113.16,0.04,-0.07,1.15,4.88,-0.63,11.34,53.14,76.87,438.06,21.00
38268,22.20,999.68,113.80,113.29,0.04,-0.07,1.14,4.65,0.01,10.91,53.12,76.89,438.40,20.51
38302,22.20,999.68,113.80,113.39,0.04,-0.07,1.15,4.68,-1.46,10.96,53.13,76.86,438.78,21.48
38334,22.20,999.65,114.06,113.53,0.04,-0.07,1.14,4.60,-0.94,10.88,53.13,76.86,439.12,21.48
38365,22.20,999.65,114.06,113.63,0.04,-0.07,1.15,4.54,-0.10,10.97,53.12,76.88,439.46,21.48
38396,22.20,999.65,114.06,113.72,0.03,-0.07,1.15,4.83,0.16,11.22,53.12,76.91,439.81,21.00
38428,22.20,999.60,114.50,113.87,0.05,-0.07,1.15,4.51,-0.22,11.02,53.12,76.92,440.16,21.00
38460,22.20,999.60,114.50,114.00,0.04,-0.07,1.14,4.68,-1.23,10.88,53.12,76.90,440.51,20.02
38493,22.20,999.60,114.50,114.10,0.03,-0.07,1.15,4.71,-0.67,10.74,53.12,76.91,440.87,21.00
38524,22.20,999.55,114.88,114.25,0.03,-0.07,1.15,4.88,-0.79,11.54,53.12,76.91,441.22,20.51
38556,22.20,999.55,114.88,114.38,0.04,-0.07,1.15,5.01,-0.48,11.11,53.13,76.92,441.58,21.00
38588,22.20,999.55,114.88,114.48,0.05,-0.07,1.14,4.63,-1.14,11.18,53.13,76.90,441.94,21.00
38619,22.20,999.51,115.22,114.63,0.04,-0.07,1.15,4.27,-1.23,10.70,53.12,76.88,442.28,21.48
38651,22.20,999.51,115.22,114.75,0.04,-0.07,1.15,4.42,-0.65,10.97,53.11,76.88,442.62,21.00
38685,22.20,999.51,115.22,114.84,0.04,-0.07,1.15,4.79,-0.67,11.34,53.12,76.88,443.01,20.51
38717,22.20,999.49,115.42,114.96,0.05,-0.06,1.15,4.65,-0.89,11.06,53.12,76.86,443.36,21.00
38749,22.20,999.49,115.42,115.05,0.04,-0.07,1.15,4.63,-1.17,10.80,53.12,76.85,443.70,21.00
38780,22.20,999.49,115.42,115.12,0.04,-0.08,1.15,4.45,-0.42,10.80,53.10,76.86,444.04,21.00
38812,22.20,999.45,115.79,115.26,0.03,-0.07,1.15,4.88,-0.24,11.32,53.11,76.88,444.40,20.51
38846,22.20,999.45,115.79,115.36,0.05,-0.07,1.15,4.42,-0.63,10.96,53.11,76.88,444.77,20.51
38877,22.20,999.45,115.79,115.45,0.05,-0.06,1.15,4.51,-0.63,10.67,53.10,76.87,445.11,21.00
38908,22.20,999.40,116.19,115.60,0.04,-0.07,1.15,4.91,-0.89,10.74,53.11,76.87,445.44,21.97
38940,22.20,999.40,116.19,115.71,0.03,-0.07,1.15,4.69,-0.76,11.14,53.11,76.88,445.79,20.51
38972,22.20,999.40,116.19,115.81,0.04,-0.07,1.15,5.08,-0.94,11.32,53.12,76.88,446.16,21.00
39003,22.20,999.38,116.37,115.92,0.04,-0.07,1.14,4.62,-0.62,11.14,53.11,76.88,446.51,21.00
39037,22.20,999.38,116.37,116.01,0.03,-0.08,1.15,4.85,-1.35,10.97,53.12,76.87,446.88,20.51
39069,22.20,999.38,116.37,116.08,0.03,-0.07,1.15,4.71,-1.17,11.17,53.11,76.86,447.23,21.00
39101,22.20,999.35,116.57,116.18,0.03,-0.06,1.15,4.65,-0.51,11.34,53.12,76.87,447.60,21.00
39133,22.20,999.35,116.57,116.26,0.04,-0.07,1.15,4.62,-0.07,11.09,53.11,76.89,447.95,21.00
39164,22.20,999.35,116.57,116.32,0.05,-0.07,1.15,4.60,-0.54,10.79,53.11,76.89,448.29,21.00
39198,22.20,999.32,116.85,116.43,0.04,-0.07,1.15,4.56,-0.62,10.89,53.11,76.89,448.66,21.00
39230,22.20,999.32,116.85,116.51,0.04,-0.07,1.15,4.72,-0.33,11.28,53.11,76.90,449.02,21.00
39261,22.20,999.32,116.85,116.58,0.03,-0.07,1.15,5.03,0.01,11.35,53.11,76.93,449.37,21.48
39292,22.20,999.32,117.22,116.71,0.05,-0.06,1.15,4.79,-0.91,11.00,53.11,76.92,449.71,21.00
39324,22.21,999.28,117.22,116.81,0.04,-0.07,1.16,4.77,-1.44,10.68,53.11,76.90,450.05,20.02
39356,22.21,999.28,117.22,116.89,0.03,-0.07,1.15,4.76,-1.08,11.02,53.12,76.89,450.40,21.48
39389,22.21,999.28,117.22,116.96,0.03,-0.07,1.15,4.92,-0.88,11.46,53.13,76.89,450.78,20.51
39420,22.21,999.23,117.61,117.09,0.04,-0.08,1.15,4.66,-0.67,11.17,53.12,76.89,451.13,20.02
39452,22.21,999.23,117.61,117.19,0.04,-0.07,1.15,4.51,-1.06,10.97,53.11,76.88,451.48,21.00
39484,22.21,999.23,117.61,117.28,0.04,-0.07,1.15,4.59,-0.89,10.73,53.11,76.87,451.82,21.00
39515,22.20,999.18,118.04,117.43,0.04,-0.07,1.16,4.62,-0.28,10.86,53.11,76.89,452.17,20.51
39549,22.20,999.18,118.04,117.55,0.04,-0.07,1.14,4.76,-0.27,11.08,53.11,76.90,452.54,21.00
39581,22.20,999.18,118.04,117.65,0.05,-0.07,1.15,4.53,-0.67,10.79,53.11,76.89,452.88,20.51
39613,22.20,999.14,118.34,117.79,0.04,-0.07,1.15,4.56,-0.65,10.57,53.10,76.89,453.22,21.00
39645,22.20,999.14,118.34,117.90,0.03,-0.06,1.16,4.77,-0.44,11.02,53.11,76.91,453.57,20.51
39676,22.20,999.14,118.34,117.99,0.04,-0.07,1.15,5.14,-0.54,11.23,53.12,76.92,453.92,21.48
39708,22.20,999.11,118.61,118.11,0.04,-0.07,1.15,4.89,-0.70,10.96,53.12,76.91,454.27,21.48
39742,22.20,999.11,118.61,118.21,0.04,-0.07,1.16,4.82,-0.60,10.85,53.13,76.91,454.64,21.48
39773,22.20,999.11,118.61,118.29,0.04,-0.07,1.15,4.59,-1.23,11.00,53.13,76.90,454.98,21.00
39804,22.20,999.10,118.72,118.38,0.04,-0.06,1.15,4.77,-1.00,11.26,53.13,76.90,455.33,21.48
39836,22.20,999.10,118.72,118.45,0.04,-0.07,1.14,4.89,-0.47,11.20,53.14,76.90,455.69,20.51
39868,22.20,999.10,118.72,118.50,0.04,-0.07,1.14,4.46,-0.42,10.77,53.13,76.91,456.03,21.48
39899,22.20,999.03,119.29,118.66,0.04,-0.07,1.14,4.54,-0.74,10.80,53.13,76.91,456.38,20.51
39933,22.20,999.03,119.29,118.78,0.03,-0.06,1.15,4.65,-0.44,11.32,53.13,76.93,456.75,20.02
39965,22.20,999.03,119.29,118.88,0.04,-0.07,1.15,4.82,0.05,11.25,53.14,76.95,457.11,20.51
39997,22.20,998.99,119.64,119.04,0.04,-0.07,1.15,4.77,-0.01,11.32,53.14,76.96,457.47,21.00
40029,22.20,998.99,119.64,119.16,0.04,-0.06,1.15,4.65,-0.71,10.77,53.14,76.96,457.82,21.00
40060,22.20,998.99,119.64,119.25,0.03,-0.07,1.15,4.65,-0.71,10.79,53.13,76.97,458.15,21.00
40094,22.21,998.93,120.09,119.42,0.04,-0.07,1.15,4.94,0.08,11.06,53.15,76.99,458.53,21.00
40126,22.21,998.93,120.09,119.55,0.05,-0.07,1.14,4.57,-0.24,10.80,53.14,77.00,458.88,21.00
40157,22.21,998.93,120.09,119.66,0.04,-0.07,1.14,4.71,-1.43,10.96,53.14,76.98,459.21,21.48
40188,22.21,998.91,120.26,119.78,0.03,-0.08,1.16,4.82,-1.43,10.85,53.13,76.97,459.55,21.00
40220,22.21,998.91,120.26,119.87,0.04,-0.07,1.15,4.77,-0.77,11.05,53.13,76.97,459.90,21.00
40252,22.21,998.91,120.26,119.95,0.03,-0.07,1.15,4.97,-0.34,11.40,53.14,76.99,460.27,21.48
40285,22.20,998.85,120.79,120.12,0.05,-0.07,1.14,4.40,-0.60,10.80,53.13,76.98,460.63,20.51
40316,22.20,998.85,120.79,120.25,0.04,-0.07,1.15,4.42,-0.80,10.74,53.11,76.97,460.96,20.02
40348,22.20,998.85,120.79,120.36,0.04,-0.08,1.15,4.62,-0.15,10.83,53.11,76.99,461.31,20.51
40380,22.20,998.82,121.08,120.50,0.03,-0.07,1.15,4.69,-0.21,11.26,53.11,77.01,461.67,21.48
40411,22.20,998.82,121.08,120.62,0.04,-0.07,1.15,4.89,-0.18,11.23,53.11,77.02,462.03,21.00
40445,22.20,998.82,121.08,120.71,0.04,-0.07,1.16,4.65,-0.57,10.80,53.11,77.03,462.38,20.51
40477,22.21,998.78,121.38,120.84,0.04,-0.07,1.15,4.51,-0.41,10.74,53.11,77.04,462.73,21.00
40509,22.21,998.78,121.38,120.95,0.04,-0.07,1.16,5.03,-0.33,11.31,53.12,77.05,463.09,21.00
40541,22.21,998.78,121.38,121.04,0.04,-0.07,1.15,5.12,-0.56,11.43,53.13,77.05,463.45,21.00
40572,22.21,998.73,121.80,121.19,0.05,-0.06,1.15,4.69,-0.97,10.80,53.13,77.03,463.79,20.51
40604,22.21,998.73,121.80,121.31,0.03,-0.07,1.16,4.65,-1.38,10.85,53.13,77.02,464.14,21.48
40638,22.21,998.73,121.80,121.41,0.03,-0.07,1.15,4.88,-0.91,11.37,53.15,77.01,464.52,20.51
40669,22.21,998.71,122.00,121.53,0.03,-0.07,1.16,4.91,-0.54,11.60,53.15,77.02,464.88,21.48
40700,22.21,998.71,122.00,121.62,0.05,-0.07,1.14,4.95,-0.02,11.25,53.15,77.03,465.23,21.00
40732,22.21,998.71,122.00,121.70,0.05,-0.07,1.15,4.66,-0.85,10.47,53.14,77.02,465.56,21.00
40764,22.21,998.66,122.44,121.84,0.04,-0.07,1.16,4.45,-0.53,10.60,53.14,77.02,465.90,21.00
40797,22.21,998.66,122.44,121.96,0.03,-0.06,1.14,4.71,-0.10,11.09,53.15,77.05,466.27,21.00
40828,22.21,998.66,122.44,122.06,0.04,-0.07,1.14,4.77,0.02,11.12,53.15,77.06,466.61,21.00
40860,22.21,998.62,122.75,122.19,0.05,-0.07,1.14,4.66,-1.08,10.97,53.15,77.04,466.97,20.51
40892,22.21,998.62,122.75,122.31,0.04,-0.07,1.15,4.72,-1.52,11.02,53.14,77.01,467.32,21.00
40923,22.21,998.62,122.75,122.39,0.03,-0.07,1.15,4.46,-1.03,11.00,53.13,77.01,467.67,21.00
40955,22.20,998.58,123.06,122.53,0.03,-0.06,1.15,4.79,-0.47,11.46,53.13,77.02,468.03,20.51
40989,22.20,998.58,123.06,122.63,0.05,-0.07,1.14,4.82,-0.74,11.17,53.15,77.00,468.41,21.00
41021,22.20,998.58,123.06,122.72,0.04,-0.07,1.16,4.72,-1.49,10.89,53.15,76.98,468.75,21.00
41053,22.21,998.55,123.35,122.84,0.03,-0.07,1.14,4.42,-0.88,10.80,53.14,76.98,469.10,21.48
41084,22.21,998.55,123.35,122.95,0.03,-0.06,1.16,4.66,-0.28,11.20,53.14,77.00,469.45,21.00
41116,22.21,998.55,123.35,123.03,0.03,-0.07,1.15,4.92,0.25,11.12,53.15,77.03,469.80,21.00
41148,22.21,998.50,123.71,123.16,0.04,-0.07,1.15,4.68,-0.54,11.03,53.15,77.03,470.16,20.51
41181,22.21,998.50,123.71,123.27,0.03,-0.07,1.15,4.76,-0.67,10.74,53.16,77.04,470.51,21.97
41212,22.21,998.50,123.71,123.36,0.03,-0.07,1.16,4.66,-0.91,11.15,53.15,77.04,470.86,20.51
41244,22.20,998.44,124.22,123.53,0.04,-0.06,1.15,4.95,-0.70,11.40,53.17,77.03,471.22,20.51
41276,22.20,998.44,124.22,123.67,0.05,-0.06,1.14,4.86,-0.63,11.14,53.18,77.02,471.58,20.51
41307,22.20,998.44,124.22,123.78,0.04,-0.07,1.14,4.60,-1.49,10.88,53.17,76.99,471.93,21.00
41341,22.21,998.44,124.26,123.87,0.03,-0.07,1.15,4.85,-0.82,10.96,53.18,76.99,472.29,21.48
41373,22.21,998.44,124.26,123.95,0.03,-0.06,1.16,5.00,-0.97,11.46,53.19,76.99,472.65,21.48
41405,22.21,998.44,124.26,124.01,0.04,-0.07,1.15,4.69,-0.47,11.06,53.19,76.99,473.01,21.00
41437,22.21,998.41,124.50,124.11,0.05,-0.06,1.14,4.43,-1.11,10.99,53.19,76.97,473.36,21.00
41468,22.21,998.41,124.50,124.19,0.03,-0.07,1.16,4.92,-0.56,11.09,53.18,76.98,473.70,21.00
41500,22.21,998.41,124.50,124.25,0.04,-0.07,1.16,4.51,-0.30,10.80,53.18,77.00,474.05,21.00
41534,22.20,998.36,124.93,124.39,0.04,-0.07,1.15,4.48,-0.44,11.25,53.17,77.00,474.43,20.02
41565,22.20,998.36,124.93,124.50,0.05,-0.07,1.15,4.54,-0.24,11.02,53.16,77.01,474.77,21.48
41596,22.20,998.36,124.93,124.58,0.05,-0.06,1.15,4.63,-0.60,10.70,53.16,77.00,475.10,21.00
41628,22.21,998.33,125.17,124.70,0.04,-0.07,1.15,4.63,-0.51,10.86,53.16,77.00,475.45,21.00
41660,22.21,998.33,125.17,124.79,0.03,-0.07,1.15,4.92,-0.47,11.37,53.17,77.01,475.82,20.51
41693,22.21,998.33,125.17,124.87,0.04,-0.07,1.14,4.82,0.07,10.96,53.17,77.03,476.18,21.00
41724,22.21,998.30,125.44,124.98,0.05,-0.07,1.15,4.63,-1.05,10.89,53.17,77.01,476.52,21.00
41756,22.21,998.30,125.44,125.07,0.04,-0.07,1.14,4.79,-1.38,10.88,53.17,76.99,476.86,21.00
41788,22.21,998.30,125.44,125.15,0.03,-0.07,1.15,4.72,-0.80,11.20,53.18,76.99,477.22,21.00
41819,22.21,998.23,126.03,125.32,0.04,-0.07,1.15,4.80,-0.45,11.34,53.18,77.00,477.58,20.51
41851,22.21,998.23,126.03,125.47,0.04,-0.07,1.14,4.51,-0.45,10.99,53.17,77.00,477.93,21.48
41885,22.21,998.23,126.03,125.58,0.04,-0.07,1.15,4.60,-1.47,10.82,53.18,76.98,478.29,21.00
41917,22.21,998.21,126.16,125.70,0.04,-0.08,1.15,4.57,-0.94,11.25,53.17,76.97,478.65,21.00
41949,22.21,998.21,126.16,125.79,0.04,-0.07,1.15,4.83,-0.31,11.37,53.16,76.98,479.02,20.02
41980,22.21,998.21,126.16,125.86,0.04,-0.07,1.14,4.60,-0.21,10.97,53.16,76.99,479.36,21.00
42012,22.21,998.17,126.50,125.99,0.04,-0.07,1.15,4.50,-0.79,10.80,53.15,76.98,479.70,20.51
42046,22.21,998.17,126.50,126.09,0.03,-0.08,1.16,4.74,-0.71,10.85,53.16,76.99,480.07,21.48
42077,22.21,998.17,126.50,126.17,0.04,-0.06,1.15,4.80,-0.27,11.29,53.16,77.01,480.42,21.00
42108,22.20,998.12,126.98,126.33,0.04,-0.07,1.15,4.83,0.22,11.17,53.16,77.03,480.77,21.48
42140,22.20,998.12,126.98,126.46,0.05,-0.07,1.14,4.34,-0.48,10.76,53.15,77.03,481.11,21.48
42172,22.20,998.12,126.98,126.57,0.04,-0.07,1.14,4.82,-1.12,10.79,53.15,77.01,481.46,20.02
42203,22.21,998.07,127.33,126.72,0.04,-0.07,1.15,4.80,-1.00,11.06,53.16,77.00,481.81,21.48
42237,22.21,998.07,127.33,126.84,0.04,-0.07,1.14,4.65,0.19,11.22,53.16,77.02,482.18,20.51
42269,22.21,998.07,127.33,126.94,0.05,-0.07,1.14,4.54,-0.24,10.80,53.15,77.03,482.53,21.00
42301,22.20,998.04,127.60,127.07,0.04,-0.07,1.14,4.57,-0.53,10.67,53.15,77.03,482.87,20.51
42333,22.20,998.04,127.60,127.18,0.04,-0.07,1.15,4.66,-0.92,11.02,53.15,77.03,483.22,20.51
42364,22.20,998.04,127.60,127.26,0.03,-0.06,1.15,5.05,-0.77,11.57,53.16,77.04,483.58,21.48
42396,22.21,998.01,127.85,127.38,0.05,-0.08,1.15,4.68,-0.60,10.93,53.15,77.02,483.93,21.48
42430,22.21,998.01,127.85,127.48,0.03,-0.07,1.14,4.69,-1.15,10.74,53.16,77.01,484.29,21.00
42461,22.21,998.01,127.85,127.55,0.04,-0.07,1.16,4.51,-1.31,10.89,53.15,76.99,484.63,21.00
42492,22.21,997.98,128.14,127.67,0.04,-0.07,1.15,4.82,-0.96,11.40,53.14,76.99,484.99,20.51
42524,22.21,997.98,128.14,127.76,0.04,-0.07,1.15,4.72,-0.41,11.25,53.15,77.00,485.34,21.00
42556,22.21,997.98,128.14,127.84,0.05,-0.07,1.15,4.40,-0.85,10.83,53.14,76.98,485.69,21.00
42589,22.21,997.93,128.59,127.99,0.04,-0.07,1.15,4.56,-0.88,10.86,53.14,76.97,486.05,21.00
42620,22.21,997.93,128.59,128.11,0.04,-0.07,1.15,4.54,-0.48,11.08,53.13,76.98,486.39,21.00
42652,22.21,997.93,128.59,128.21,0.04,-0.07,1.15,4.79,0.11,11.29,53.13,77.01,486.75,20.51
42684,22.21,997.90,128.81,128.33,0.04,-0.07,1.14,4.53,-0.27,11.00,53.13,77.02,487.11,21.00
42715,22.21,997.90,128.81,128.42,0.04,-0.07,1.15,4.66,-0.89,10.77,53.13,77.01,487.45,21.48
42747,22.21,997.90,128.81,128.50,0.03,-0.07,1.15,4.66,-1.02,10.80,53.12,77.00,487.79,21.00
42781,22.20,997.83,129.37,128.68,0.04,-0.07,1.15,4.88,0.31,11.17,53.13,77.03,488.17,21.00
42813,22.20,997.83,129.37,128.82,0.05,-0.07,1.15,4.71,-0.71,10.89,53.14,77.02,488.51,21.00
42845,22.20,997.83,129.37,128.93,0.04,-0.07,1.15,4.85,-0.96,10.88,53.14,77.01,488.86,21.00
42876,22.20,997.79,129.71,129.08,0.03,-0.07,1.16,4.89,-0.99,11.09,53.14,77.01,489.21,21.00
